SUBJECT	ITEM	CONDITION	RT	TRAINING	SCALE	TYPE	SENTENCE	RESP	TRIAL
1	3	ScT2_3	776	logical	Sc	T	2	1	1
1	1	ScF1_1	1183	logical	Sc	F	1	0	2
1	1	ScU1_1	565	logical	Sc	U	1	0	3
1	3	ScU1_3	543	logical	Sc	U	1	1	4
1	1	ScT2_1	718	logical	Sc	T	2	1	5
1	1	ScT1_1	565	logical	Sc	T	1	1	6
1	2	ScT2_2	686	logical	Sc	T	2	1	7
1	2	ScF1_2	1007	logical	Sc	F	1	0	8
1	1	ScU2_1	574	logical	Sc	U	2	1	9
1	2	ScU1_2	927	logical	Sc	U	1	1	10
1	3	ScF2_3	1022	logical	Sc	F	2	0	11
1	3	ScU2_3	654	logical	Sc	U	2	1	12
1	1	ScF2_1	2756	logical	Sc	F	2	0	13
1	3	ScT1_3	798	logical	Sc	T	1	1	14
1	2	ScU2_2	1366	logical	Sc	U	2	1	15
1	2	ScF2_2	751	logical	Sc	F	2	0	16
1	3	ScF1_3	1486	logical	Sc	F	1	0	17
1	2	ScT1_2	670	logical	Sc	T	1	1	18
2	1	ScF2_1	1188	logical	Sc	F	2	0	1
2	3	ScT1_3	1052	logical	Sc	T	1	1	2
2	2	ScF2_2	1041	logical	Sc	F	2	0	3
2	3	ScT2_3	938	logical	Sc	T	2	1	4
2	2	ScU1_2	923	logical	Sc	U	1	1	5
2	1	ScT1_1	1027	logical	Sc	T	1	1	6
2	2	ScF1_2	761	logical	Sc	F	1	0	7
2	1	ScT2_1	1026	logical	Sc	T	2	1	8
2	1	ScU1_1	764	logical	Sc	U	1	1	9
2	3	ScF2_3	815	logical	Sc	F	2	0	10
2	3	ScU2_3	937	logical	Sc	U	2	0	11
2	2	ScU2_2	1214	logical	Sc	U	2	1	12
2	1	ScU2_1	932	logical	Sc	U	2	1	13
2	2	ScT1_2	910	logical	Sc	T	1	1	14
2	3	ScU1_3	730	logical	Sc	U	1	1	15
2	1	ScF1_1	905	logical	Sc	F	1	0	16
2	2	ScT2_2	817	logical	Sc	T	2	1	17
2	3	ScF1_3	784	logical	Sc	F	1	0	18
3	2	ScF1_2	1489	logical	Sc	F	1	0	1
3	2	ScF2_2	1652	logical	Sc	F	2	0	2
3	3	ScF2_3	2292	logical	Sc	F	2	0	3
3	3	ScT1_3	1182	logical	Sc	T	1	1	4
3	2	ScU1_2	1173	logical	Sc	U	1	1	5
3	2	ScU2_2	923	logical	Sc	U	2	1	6
3	1	ScU1_1	924	logical	Sc	U	1	1	7
3	2	ScT2_2	1029	logical	Sc	T	2	1	8
3	1	ScT2_1	2727	logical	Sc	T	2	1	9
3	1	ScF2_1	958	logical	Sc	F	2	0	10
3	3	ScF1_3	1141	logical	Sc	F	1	0	11
3	1	ScF1_1	1085	logical	Sc	F	1	0	12
3	2	ScT1_2	1404	logical	Sc	T	1	1	13
3	3	ScU2_3	1959	logical	Sc	U	2	1	14
3	3	ScT2_3	1244	logical	Sc	T	2	1	15
3	3	ScU1_3	972	logical	Sc	U	1	1	16
3	1	ScT1_1	917	logical	Sc	T	1	1	17
3	1	ScU2_1	1997	logical	Sc	U	2	1	18
4	1	ScF1_1	1334	logical	Sc	F	1	0	1
4	1	ScT2_1	1016	logical	Sc	T	2	1	2
4	3	ScU1_3	732	logical	Sc	U	1	1	3
4	3	ScF1_3	1080	logical	Sc	F	1	0	4
4	1	ScF2_1	1214	logical	Sc	F	2	0	5
4	1	ScU1_1	1060	logical	Sc	U	1	1	6
4	3	ScT2_3	914	logical	Sc	T	2	1	7
4	2	ScF1_2	1796	logical	Sc	F	1	0	8
4	3	ScF2_3	994	logical	Sc	F	2	0	9
4	1	ScU2_1	1832	logical	Sc	U	2	1	10
4	2	ScT2_2	814	logical	Sc	T	2	1	11
4	2	ScU2_2	792	logical	Sc	U	2	1	12
4	2	ScT1_2	1030	logical	Sc	T	1	1	13
4	2	ScF2_2	756	logical	Sc	F	2	0	14
4	3	ScT1_3	2326	logical	Sc	T	1	1	15
4	3	ScU2_3	748	logical	Sc	U	2	1	16
4	1	ScT1_1	964	logical	Sc	T	1	1	17
4	2	ScU1_2	762	logical	Sc	U	1	1	18
5	3	ScF2_3	1752	logical	Sc	F	2	0	1
5	3	ScU1_3	1671	logical	Sc	U	1	1	2
5	1	ScF2_1	1005	logical	Sc	F	2	0	3
5	1	ScT2_1	1419	logical	Sc	T	2	1	4
5	2	ScF1_2	1401	logical	Sc	F	1	0	5
5	2	ScU2_2	1082	logical	Sc	U	2	1	6
5	2	ScT1_2	1156	logical	Sc	T	1	1	7
5	3	ScT1_3	697	logical	Sc	T	1	1	8
5	2	ScT2_2	691	logical	Sc	T	2	1	9
5	1	ScU2_1	828	logical	Sc	U	2	1	10
5	3	ScU2_3	607	logical	Sc	U	2	1	11
5	1	ScF1_1	871	logical	Sc	F	1	0	12
5	2	ScF2_2	997	logical	Sc	F	2	0	13
5	3	ScF1_3	1361	logical	Sc	F	1	1	14
5	3	ScT2_3	2447	logical	Sc	T	2	1	15
5	1	ScU1_1	623	logical	Sc	U	1	1	16
5	2	ScU1_2	540	logical	Sc	U	1	1	17
5	1	ScT1_1	1325	logical	Sc	T	1	1	18
6	2	ScF1_2	1879	logical	Sc	F	1	0	1
6	1	ScT1_1	1289	logical	Sc	T	1	1	2
6	1	ScF1_1	925	logical	Sc	F	1	0	3
6	2	ScT1_2	1266	logical	Sc	T	1	1	4
6	3	ScU2_3	1044	logical	Sc	U	2	1	5
6	1	ScU2_1	870	logical	Sc	U	2	1	6
6	2	ScF2_2	1059	logical	Sc	F	2	0	7
6	1	ScT2_1	1437	logical	Sc	T	2	1	8
6	3	ScT1_3	2739	logical	Sc	T	1	1	9
6	2	ScU2_2	1399	logical	Sc	U	2	1	10
6	1	ScU1_1	701	logical	Sc	U	1	1	11
6	3	ScT2_3	638	logical	Sc	T	2	1	12
6	3	ScF2_3	534	logical	Sc	F	2	1	13
6	3	ScU1_3	693	logical	Sc	U	1	1	14
6	2	ScU1_2	841	logical	Sc	U	1	1	15
6	1	ScF2_1	1653	logical	Sc	F	2	1	16
6	3	ScF1_3	1141	logical	Sc	F	1	0	17
6	2	ScT2_2	1575	logical	Sc	T	2	1	18
7	1	ScU1_1	852	logical	Sc	U	1	1	1
7	2	ScT2_2	890	logical	Sc	T	2	1	2
7	1	ScT1_1	1821	logical	Sc	T	1	1	3
7	2	ScU1_2	779	logical	Sc	U	1	1	4
7	1	ScT2_1	882	logical	Sc	T	2	1	5
7	1	ScU2_1	911	logical	Sc	U	2	1	6
7	1	ScF1_1	1105	logical	Sc	F	1	0	7
7	2	ScF1_2	1163	logical	Sc	F	1	0	8
7	3	ScU1_3	696	logical	Sc	U	1	1	9
7	2	ScU2_2	1601	logical	Sc	U	2	1	10
7	3	ScU2_3	984	logical	Sc	U	2	1	11
7	3	ScT1_3	843	logical	Sc	T	1	1	12
7	2	ScT1_2	749	logical	Sc	T	1	1	13
7	3	ScF1_3	681	logical	Sc	F	1	0	14
7	1	ScF2_1	651	logical	Sc	F	2	1	15
7	2	ScF2_2	1130	logical	Sc	F	2	0	16
7	3	ScF2_3	1238	logical	Sc	F	2	0	17
7	3	ScT2_3	835	logical	Sc	T	2	1	18
8	2	ScF2_2	1568	logical	Sc	F	2	0	1
8	3	ScU2_3	2428	logical	Sc	U	2	1	2
8	3	ScT2_3	2334	logical	Sc	T	2	1	3
8	1	ScT1_1	1994	logical	Sc	T	1	1	4
8	1	ScU2_1	1277	logical	Sc	U	2	1	5
8	3	ScU1_3	834	logical	Sc	U	1	1	6
8	2	ScT2_2	894	logical	Sc	T	2	1	7
8	2	ScU2_2	1105	logical	Sc	U	2	1	8
8	1	ScF2_1	806	logical	Sc	F	2	0	9
8	1	ScU1_1	973	logical	Sc	U	1	1	10
8	3	ScT1_3	740	logical	Sc	T	1	1	11
8	3	ScF2_3	1229	logical	Sc	F	2	0	12
8	1	ScT2_1	851	logical	Sc	T	2	1	13
8	2	ScF1_2	1250	logical	Sc	F	1	0	14
8	2	ScU1_2	1025	logical	Sc	U	1	1	15
8	2	ScT1_2	977	logical	Sc	T	1	0	16
8	1	ScF1_1	1165	logical	Sc	F	1	1	17
8	3	ScF1_3	1745	logical	Sc	F	1	0	18
9	2	ScF2_2	2420	logical	Sc	F	2	0	1
9	1	ScT2_1	1261	logical	Sc	T	2	1	2
9	3	ScT1_3	1304	logical	Sc	T	1	1	3
9	1	ScU2_1	925	logical	Sc	U	2	1	4
9	3	ScU1_3	851	logical	Sc	U	1	1	5
9	2	ScU1_2	712	logical	Sc	U	1	1	6
9	1	ScU1_1	669	logical	Sc	U	1	1	7
9	2	ScF1_2	2029	logical	Sc	F	1	0	8
9	1	ScF2_1	1071	logical	Sc	F	2	0	9
9	1	ScT1_1	820	logical	Sc	T	1	1	10
9	2	ScT2_2	1532	logical	Sc	T	2	1	11
9	2	ScU2_2	867	logical	Sc	U	2	1	12
9	3	ScT2_3	900	logical	Sc	T	2	1	13
9	3	ScF2_3	1690	logical	Sc	F	2	0	14
9	3	ScF1_3	1293	logical	Sc	F	1	0	15
9	1	ScF1_1	1048	logical	Sc	F	1	0	16
9	3	ScU2_3	985	logical	Sc	U	2	1	17
9	2	ScT1_2	843	logical	Sc	T	1	1	18
10	1	ScU2_1	1639	logical	Sc	U	2	1	1
10	2	ScF2_2	1121	logical	Sc	F	2	0	2
10	2	ScF1_2	1110	logical	Sc	F	1	1	3
10	3	ScF2_3	1199	logical	Sc	F	2	0	4
10	3	ScU2_3	1787	logical	Sc	U	2	1	5
10	3	ScU1_3	1234	logical	Sc	U	1	1	6
10	3	ScT2_3	1643	logical	Sc	T	2	1	7
10	3	ScF1_3	1254	logical	Sc	F	1	0	8
10	1	ScU1_1	1043	logical	Sc	U	1	1	9
10	1	ScF2_1	1201	logical	Sc	F	2	0	10
10	3	ScT1_3	863	logical	Sc	T	1	1	11
10	2	ScT1_2	1020	logical	Sc	T	1	1	12
10	2	ScT2_2	828	logical	Sc	T	2	1	13
10	2	ScU1_2	964	logical	Sc	U	1	1	14
10	1	ScT2_1	840	logical	Sc	T	2	1	15
10	1	ScF1_1	1077	logical	Sc	F	1	0	16
10	2	ScU2_2	5892	logical	Sc	U	2	1	17
10	1	ScT1_1	908	logical	Sc	T	1	1	18
11	2	ScF1_2	2248	logical	Sc	F	1	0	1
11	3	ScT2_3	1741	logical	Sc	T	2	1	2
11	2	ScT2_2	1525	logical	Sc	T	2	1	3
11	3	ScF2_3	2021	logical	Sc	F	2	0	4
11	1	ScF2_1	2458	logical	Sc	F	2	0	5
11	3	ScT1_3	1036	logical	Sc	T	1	0	6
11	2	ScF2_2	864	logical	Sc	F	2	0	7
11	1	ScF1_1	718	logical	Sc	F	1	0	8
11	3	ScU2_3	850	logical	Sc	U	2	1	9
11	3	ScU1_3	1012	logical	Sc	U	1	1	10
11	1	ScT2_1	689	logical	Sc	T	2	1	11
11	2	ScU2_2	681	logical	Sc	U	2	0	12
11	2	ScT1_2	1004	logical	Sc	T	1	0	13
11	1	ScT1_1	945	logical	Sc	T	1	1	14
11	1	ScU2_1	960	logical	Sc	U	2	1	15
11	2	ScU1_2	693	logical	Sc	U	1	1	16
11	1	ScU1_1	605	logical	Sc	U	1	1	17
11	3	ScF1_3	1095	logical	Sc	F	1	0	18
12	3	ScT2_3	1106	logical	Sc	T	2	1	1
12	2	ScF1_2	974	logical	Sc	F	1	0	2
12	1	ScU2_1	850	logical	Sc	U	2	1	3
12	2	ScU1_2	808	logical	Sc	U	1	1	4
12	2	ScT1_2	976	logical	Sc	T	1	1	5
12	1	ScT2_1	903	logical	Sc	T	2	1	6
12	3	ScF1_3	878	logical	Sc	F	1	0	7
12	1	ScU1_1	849	logical	Sc	U	1	1	8
12	1	ScF1_1	914	logical	Sc	F	1	0	9
12	2	ScF2_2	1023	logical	Sc	F	2	0	10
12	1	ScF2_1	911	logical	Sc	F	2	0	11
12	3	ScF2_3	1080	logical	Sc	F	2	0	12
12	3	ScU1_3	941	logical	Sc	U	1	1	13
12	2	ScT2_2	944	logical	Sc	T	2	1	14
12	3	ScT1_3	686	logical	Sc	T	1	1	15
12	1	ScT1_1	838	logical	Sc	T	1	1	16
12	2	ScU2_2	783	logical	Sc	U	2	1	17
12	3	ScU2_3	1055	logical	Sc	U	2	1	18
13	1	ScF2_1	1628	logical	Sc	F	2	0	1
13	3	ScU1_3	961	logical	Sc	U	1	1	2
13	1	ScU2_1	755	logical	Sc	U	2	1	3
13	2	ScU1_2	731	logical	Sc	U	1	1	4
13	2	ScF2_2	2332	logical	Sc	F	2	0	5
13	1	ScT1_1	1149	logical	Sc	T	1	1	6
13	3	ScF1_3	1501	logical	Sc	F	1	0	7
13	3	ScU2_3	2134	logical	Sc	U	2	1	8
13	1	ScU1_1	793	logical	Sc	U	1	1	9
13	1	ScT2_1	817	logical	Sc	T	2	1	10
13	2	ScT1_2	825	logical	Sc	T	1	1	11
13	3	ScT1_3	611	logical	Sc	T	1	1	12
13	2	ScT2_2	1063	logical	Sc	T	2	1	13
13	1	ScF1_1	701	logical	Sc	F	1	0	14
13	3	ScT2_3	949	logical	Sc	T	2	1	15
13	2	ScF1_2	891	logical	Sc	F	1	0	16
13	3	ScF2_3	1580	logical	Sc	F	2	0	17
13	2	ScU2_2	1452	logical	Sc	U	2	1	18
14	1	ScU2_1	1468	logical	Sc	U	2	1	1
14	2	ScF2_2	1692	logical	Sc	F	2	0	2
14	3	ScT1_3	1412	logical	Sc	T	1	1	3
14	3	ScF2_3	2276	logical	Sc	F	2	0	4
14	2	ScT1_2	1548	logical	Sc	T	1	1	5
14	3	ScF1_3	1300	logical	Sc	F	1	0	6
14	3	ScU1_3	1844	logical	Sc	U	1	1	7
14	3	ScU2_3	2196	logical	Sc	U	2	1	8
14	1	ScT1_1	2139	logical	Sc	T	1	1	9
14	1	ScF2_1	2275	logical	Sc	F	2	0	10
14	2	ScU1_2	1115	logical	Sc	U	1	1	11
14	2	ScT2_2	1596	logical	Sc	T	2	1	12
14	1	ScT2_1	1148	logical	Sc	T	2	1	13
14	2	ScU2_2	932	logical	Sc	U	2	1	14
14	3	ScT2_3	868	logical	Sc	T	2	1	15
14	2	ScF1_2	1157	logical	Sc	F	1	0	16
14	1	ScF1_1	1212	logical	Sc	F	1	0	17
14	1	ScU1_1	972	logical	Sc	U	1	1	18
15	3	ScU2_3	1164	logical	Sc	U	2	1	1
15	1	ScT2_1	1357	logical	Sc	T	2	1	2
15	1	ScF2_1	1988	logical	Sc	F	2	0	3
15	2	ScT1_2	1069	logical	Sc	T	1	1	4
15	1	ScT1_1	853	logical	Sc	T	1	1	5
15	2	ScF2_2	1700	logical	Sc	F	2	0	6
15	3	ScT1_3	909	logical	Sc	T	1	1	7
15	1	ScF1_1	1236	logical	Sc	F	1	0	8
15	2	ScU2_2	981	logical	Sc	U	2	1	9
15	2	ScF1_2	861	logical	Sc	F	1	1	10
15	1	ScU1_1	1236	logical	Sc	U	1	1	11
15	3	ScT2_3	1348	logical	Sc	T	2	1	12
15	3	ScU1_3	972	logical	Sc	U	1	1	13
15	3	ScF1_3	1254	logical	Sc	F	1	0	14
15	1	ScU2_1	1093	logical	Sc	U	2	1	15
15	2	ScU1_2	810	logical	Sc	U	1	1	16
15	3	ScF2_3	1453	logical	Sc	F	2	0	17
15	2	ScT2_2	1932	logical	Sc	T	2	1	18
16	2	ScF1_2	1461	logical	Sc	F	1	0	1
16	1	ScU2_1	981	logical	Sc	U	2	1	2
16	1	ScF2_1	821	logical	Sc	F	2	0	3
16	3	ScF1_3	948	logical	Sc	F	1	0	4
16	2	ScT1_2	768	logical	Sc	T	1	1	5
16	1	ScT2_1	772	logical	Sc	T	2	1	6
16	3	ScT1_3	665	logical	Sc	T	1	1	7
16	2	ScF2_2	693	logical	Sc	F	2	0	8
16	1	ScT1_1	1113	logical	Sc	T	1	1	9
16	3	ScF2_3	794	logical	Sc	F	2	0	10
16	2	ScU1_2	896	logical	Sc	U	1	1	11
16	3	ScU2_3	952	logical	Sc	U	2	1	12
16	2	ScU2_2	553	logical	Sc	U	2	1	13
16	3	ScU1_3	606	logical	Sc	U	1	1	14
16	1	ScU1_1	487	logical	Sc	U	1	1	15
16	2	ScT2_2	806	logical	Sc	T	2	1	16
16	1	ScF1_1	698	logical	Sc	F	1	0	17
16	3	ScT2_3	656	logical	Sc	T	2	1	18
17	1	ScT2_1	2463	logical	Sc	T	2	1	1
17	2	ScT2_2	1540	logical	Sc	T	2	1	2
17	3	ScT2_3	1930	logical	Sc	T	2	1	3
17	1	ScF2_1	1531	logical	Sc	F	2	0	4
17	1	ScT1_1	1631	logical	Sc	T	1	1	5
17	2	ScF1_2	1205	logical	Sc	F	1	0	6
17	1	ScF1_1	1184	logical	Sc	F	1	0	7
17	2	ScT1_2	1163	logical	Sc	T	1	1	8
17	1	ScU2_1	1974	logical	Sc	U	2	1	9
17	3	ScU2_3	1859	logical	Sc	U	2	1	10
17	3	ScF1_3	958	logical	Sc	F	1	0	11
17	3	ScU1_3	1228	logical	Sc	U	1	1	12
17	3	ScF2_3	2184	logical	Sc	F	2	0	13
17	2	ScU1_2	2121	logical	Sc	U	1	1	14
17	2	ScU2_2	1246	logical	Sc	U	2	1	15
17	1	ScU1_1	913	logical	Sc	U	1	1	16
17	2	ScF2_2	1013	logical	Sc	F	2	0	17
17	3	ScT1_3	1802	logical	Sc	T	1	1	18
18	1	ScT1_1	973	logical	Sc	T	1	1	1
18	1	ScT2_1	748	logical	Sc	T	2	1	2
18	3	ScT1_3	656	logical	Sc	T	1	1	3
18	3	ScF1_3	1260	logical	Sc	F	1	0	4
18	2	ScU2_2	1115	logical	Sc	U	2	1	5
18	1	ScU2_1	730	logical	Sc	U	2	1	6
18	1	ScF2_1	1061	logical	Sc	F	2	0	7
18	2	ScF1_2	1045	logical	Sc	F	1	0	8
18	2	ScU1_2	994	logical	Sc	U	1	1	9
18	3	ScF2_3	1071	logical	Sc	F	2	0	10
18	3	ScU1_3	1380	logical	Sc	U	1	1	11
18	1	ScF1_1	891	logical	Sc	F	1	0	12
18	3	ScU2_3	897	logical	Sc	U	2	1	13
18	2	ScF2_2	1028	logical	Sc	F	2	0	14
18	2	ScT2_2	1021	logical	Sc	T	2	1	15
18	2	ScT1_2	2203	logical	Sc	T	1	1	16
18	3	ScT2_3	866	logical	Sc	T	2	1	17
18	1	ScU1_1	606	logical	Sc	U	1	1	18
19	2	ScU1_2	1480	logical	Sc	U	1	1	1
19	2	ScU2_2	737	logical	Sc	U	2	1	2
19	2	ScF2_2	1226	logical	Sc	F	2	0	3
19	2	ScF1_2	1102	logical	Sc	F	1	0	4
19	3	ScF1_3	822	logical	Sc	F	1	0	5
19	1	ScF2_1	914	logical	Sc	F	2	0	6
19	1	ScT1_1	2118	logical	Sc	T	1	1	7
19	3	ScU1_3	896	logical	Sc	U	1	1	8
19	1	ScT2_1	835	logical	Sc	T	2	1	9
19	1	ScU1_1	682	logical	Sc	U	1	1	10
19	3	ScT2_3	707	logical	Sc	T	2	1	11
19	1	ScF1_1	910	logical	Sc	F	1	0	12
19	3	ScU2_3	570	logical	Sc	U	2	1	13
19	1	ScU2_1	720	logical	Sc	U	2	1	14
19	2	ScT1_2	546	logical	Sc	T	1	1	15
19	3	ScT1_3	854	logical	Sc	T	1	1	16
19	3	ScF2_3	898	logical	Sc	F	2	0	17
19	2	ScT2_2	569	logical	Sc	T	2	1	18
20	1	ScT1_1	4190	logical	Sc	T	1	1	1
20	3	ScT1_3	1513	logical	Sc	T	1	1	2
20	2	ScT1_2	1200	logical	Sc	T	1	1	3
20	3	ScT2_3	1188	logical	Sc	T	2	1	4
20	1	ScU2_1	1346	logical	Sc	U	2	1	5
20	3	ScF1_3	1629	logical	Sc	F	1	0	6
20	1	ScU1_1	1226	logical	Sc	U	1	1	7
20	2	ScU2_2	1019	logical	Sc	U	2	1	8
20	2	ScF2_2	1229	logical	Sc	F	2	0	9
20	1	ScF1_1	1355	logical	Sc	F	1	0	10
20	3	ScF2_3	1199	logical	Sc	F	2	0	11
20	1	ScF2_1	1351	logical	Sc	F	2	0	12
20	3	ScU1_3	1184	logical	Sc	U	1	1	13
20	2	ScT2_2	1483	logical	Sc	T	2	1	14
20	2	ScU1_2	1052	logical	Sc	U	1	1	15
20	2	ScF1_2	1257	logical	Sc	F	1	0	16
20	3	ScU2_3	1024	logical	Sc	U	2	1	17
20	1	ScT2_1	1614	logical	Sc	T	2	1	18
21	1	ScF1_1	1271	logical	Sc	F	1	0	1
21	3	ScT1_3	1417	logical	Sc	T	1	1	2
21	3	ScU2_3	1407	logical	Sc	U	2	1	3
21	1	ScU2_1	1083	logical	Sc	U	2	1	4
21	2	ScU2_2	861	logical	Sc	U	2	1	5
21	3	ScF1_3	975	logical	Sc	F	1	0	6
21	3	ScT2_3	1692	logical	Sc	T	2	1	7
21	2	ScF2_2	1296	logical	Sc	F	2	0	8
21	3	ScU1_3	1086	logical	Sc	U	1	1	9
21	1	ScU1_1	1011	logical	Sc	U	1	1	10
21	1	ScF2_1	1010	logical	Sc	F	2	0	11
21	1	ScT2_1	1318	logical	Sc	T	2	1	12
21	3	ScF2_3	968	logical	Sc	F	2	0	13
21	2	ScF1_2	969	logical	Sc	F	1	0	14
21	1	ScT1_1	963	logical	Sc	T	1	1	15
21	2	ScT1_2	812	logical	Sc	T	1	1	16
21	2	ScT2_2	740	logical	Sc	T	2	1	17
21	2	ScU1_2	683	logical	Sc	U	1	1	18
22	3	ScT1_3	2268	logical	Sc	T	1	1	1
22	2	ScF2_2	1618	logical	Sc	F	2	0	2
22	1	ScU2_1	1601	logical	Sc	U	2	1	3
22	3	ScF1_3	1659	logical	Sc	F	1	0	4
22	1	ScF2_1	1444	logical	Sc	F	2	0	5
22	2	ScT1_2	1675	logical	Sc	T	1	1	6
22	2	ScT2_2	1670	logical	Sc	T	2	1	7
22	3	ScF2_3	2259	logical	Sc	F	2	0	8
22	3	ScT2_3	1329	logical	Sc	T	2	1	9
22	2	ScU2_2	3617	logical	Sc	U	2	1	10
22	1	ScU1_1	2310	logical	Sc	U	1	1	11
22	2	ScF1_2	1363	logical	Sc	F	1	0	12
22	1	ScT2_1	1362	logical	Sc	T	2	1	13
22	1	ScT1_1	1164	logical	Sc	T	1	1	14
22	1	ScF1_1	1430	logical	Sc	F	1	0	15
22	3	ScU2_3	1227	logical	Sc	U	2	1	16
22	2	ScU1_2	1144	logical	Sc	U	1	1	17
22	3	ScU1_3	1203	logical	Sc	U	1	1	18
23	2	ScT1_2	4898	logical	Sc	T	1	1	1
23	2	ScF1_2	5333	logical	Sc	F	1	0	2
23	3	ScU1_3	4343	logical	Sc	U	1	1	3
23	3	ScT1_3	2408	logical	Sc	T	1	1	4
23	1	ScT2_1	1714	logical	Sc	T	2	1	5
23	2	ScU1_2	1390	logical	Sc	U	1	1	6
23	2	ScU2_2	1373	logical	Sc	U	2	1	7
23	2	ScF2_2	2315	logical	Sc	F	2	0	8
23	1	ScT1_1	3996	logical	Sc	T	1	1	9
23	1	ScU1_1	1500	logical	Sc	U	1	1	10
23	3	ScF2_3	2135	logical	Sc	F	2	0	11
23	3	ScF1_3	1494	logical	Sc	F	1	0	12
23	1	ScF1_1	1238	logical	Sc	F	1	0	13
23	3	ScT2_3	1373	logical	Sc	T	2	1	14
23	3	ScU2_3	1267	logical	Sc	U	2	1	15
23	1	ScF2_1	1377	logical	Sc	F	2	0	16
23	2	ScT2_2	3653	logical	Sc	T	2	1	17
23	1	ScU2_1	4257	logical	Sc	U	2	1	18
24	1	ScT1_1	925	logical	Sc	T	1	1	1
24	3	ScT2_3	1289	logical	Sc	T	2	1	2
24	1	ScF2_1	680	logical	Sc	F	2	0	3
24	1	ScT2_1	692	logical	Sc	T	2	1	4
24	3	ScT1_3	788	logical	Sc	T	1	1	5
24	2	ScU1_2	595	logical	Sc	U	1	1	6
24	2	ScF1_2	592	logical	Sc	F	1	0	7
24	2	ScF2_2	534	logical	Sc	F	2	0	8
24	3	ScU1_3	659	logical	Sc	U	1	1	9
24	1	ScU1_1	542	logical	Sc	U	1	1	10
24	2	ScU2_2	425	logical	Sc	U	2	1	11
24	3	ScU2_3	552	logical	Sc	U	2	1	12
24	2	ScT1_2	548	logical	Sc	T	1	1	13
24	1	ScU2_1	519	logical	Sc	U	2	1	14
24	3	ScF1_3	607	logical	Sc	F	1	0	15
24	2	ScT2_2	622	logical	Sc	T	2	1	16
24	3	ScF2_3	606	logical	Sc	F	2	0	17
24	1	ScF1_1	557	logical	Sc	F	1	0	18
25	1	ScU1_1	1432	logical	Sc	U	1	1	1
25	1	ScU2_1	562	logical	Sc	U	2	1	2
25	1	ScF2_1	822	logical	Sc	F	2	0	3
25	2	ScU2_2	736	logical	Sc	U	2	1	4
25	2	ScT1_2	1560	logical	Sc	T	1	1	5
25	2	ScT2_2	904	logical	Sc	T	2	1	6
25	1	ScT1_1	872	logical	Sc	T	1	1	7
25	3	ScU1_3	926	logical	Sc	U	1	1	8
25	1	ScT2_1	728	logical	Sc	T	2	1	9
25	3	ScT2_3	712	logical	Sc	T	2	1	10
25	2	ScF1_2	1132	logical	Sc	F	1	0	11
25	3	ScU2_3	734	logical	Sc	U	2	1	12
25	2	ScF2_2	890	logical	Sc	F	2	0	13
25	1	ScF1_1	516	logical	Sc	F	1	1	14
25	2	ScU1_2	1258	logical	Sc	U	1	1	15
25	3	ScF1_3	1060	logical	Sc	F	1	0	16
25	3	ScT1_3	784	logical	Sc	T	1	1	17
25	3	ScF2_3	1476	logical	Sc	F	2	0	18
26	3	ScU2_3	2219	logical	Sc	U	2	1	1
26	1	ScF2_1	2192	logical	Sc	F	2	0	2
26	1	ScU2_1	2467	logical	Sc	U	2	1	3
26	2	ScU2_2	1660	logical	Sc	U	2	1	4
26	3	ScF1_3	1945	logical	Sc	F	1	0	5
26	1	ScF1_1	1727	logical	Sc	F	1	0	6
26	3	ScT1_3	3318	logical	Sc	T	1	1	7
26	1	ScU1_1	2084	logical	Sc	U	1	1	8
26	2	ScF2_2	1729	logical	Sc	F	2	0	9
26	2	ScT1_2	2960	logical	Sc	T	1	1	10
26	2	ScU1_2	2716	logical	Sc	U	1	1	11
26	3	ScT2_3	1863	logical	Sc	T	2	1	12
26	3	ScF2_3	2956	logical	Sc	F	2	0	13
26	3	ScU1_3	1680	logical	Sc	U	1	1	14
26	2	ScT2_2	2966	logical	Sc	T	2	1	15
26	1	ScT2_1	1551	logical	Sc	T	2	1	16
26	2	ScF1_2	1739	logical	Sc	F	1	0	17
26	1	ScT1_1	1574	logical	Sc	T	1	1	18
27	2	ScF2_2	2416	logical	Sc	F	2	0	1
27	3	ScT2_3	1178	logical	Sc	T	2	1	2
27	1	ScU1_1	1258	logical	Sc	U	1	1	3
27	3	ScF2_3	1356	logical	Sc	F	2	0	4
27	2	ScU1_2	1684	logical	Sc	U	1	1	5
27	2	ScT1_2	1170	logical	Sc	T	1	1	6
27	2	ScT2_2	994	logical	Sc	T	2	1	7
27	1	ScT2_1	1872	logical	Sc	T	2	1	8
27	3	ScT1_3	842	logical	Sc	T	1	1	9
27	2	ScU2_2	860	logical	Sc	U	2	1	10
27	1	ScT1_1	1046	logical	Sc	T	1	1	11
27	1	ScF1_1	1482	logical	Sc	F	1	0	12
27	2	ScF1_2	1028	logical	Sc	F	1	0	13
27	1	ScF2_1	1000	logical	Sc	F	2	0	14
27	3	ScU1_3	958	logical	Sc	U	1	1	15
27	1	ScU2_1	1126	logical	Sc	U	2	1	16
27	3	ScU2_3	1042	logical	Sc	U	2	1	17
27	3	ScF1_3	1192	logical	Sc	F	1	0	18
28	2	ScT1_2	1125	logical	Sc	T	1	1	1
28	3	ScT1_3	802	logical	Sc	T	1	1	2
28	3	ScU1_3	1781	logical	Sc	U	1	0	3
28	1	ScF1_1	1198	logical	Sc	F	1	0	4
28	2	ScF2_2	1024	logical	Sc	F	2	0	5
28	1	ScU2_1	1646	logical	Sc	U	2	1	6
28	2	ScU1_2	2379	logical	Sc	U	1	1	7
28	1	ScT1_1	943	logical	Sc	T	1	1	8
28	3	ScU2_3	1035	logical	Sc	U	2	1	9
28	1	ScT2_1	748	logical	Sc	T	2	1	10
28	3	ScT2_3	668	logical	Sc	T	2	1	11
28	2	ScF1_2	877	logical	Sc	F	1	0	12
28	1	ScF2_1	913	logical	Sc	F	2	0	13
28	2	ScT2_2	1165	logical	Sc	T	2	1	14
28	1	ScU1_1	842	logical	Sc	U	1	1	15
28	3	ScF2_3	932	logical	Sc	F	2	0	16
28	2	ScU2_2	1709	logical	Sc	U	2	1	17
28	3	ScF1_3	994	logical	Sc	F	1	0	18
29	1	SoT1_1	774	logical	So	T	1	1	1
29	3	SoT1_3	670	logical	So	T	1	1	2
29	3	SoT2_3	1238	logical	So	T	2	1	3
29	2	SoF2_2	940	logical	So	F	2	0	4
29	2	SoU1_2	608	logical	So	U	1	1	5
29	2	SoT1_2	639	logical	So	T	1	1	6
29	2	SoF1_2	598	logical	So	F	1	0	7
29	2	SoT2_2	929	logical	So	T	2	1	8
29	1	SoT2_1	758	logical	So	T	2	1	9
29	2	SoU2_2	2558	logical	So	U	2	1	10
29	3	SoF1_3	574	logical	So	F	1	0	11
29	3	SoU1_3	558	logical	So	U	1	1	12
29	3	SoU2_3	637	logical	So	U	2	1	13
29	3	SoF2_3	843	logical	So	F	2	0	14
29	1	SoF1_1	798	logical	So	F	1	0	15
29	1	SoF2_1	677	logical	So	F	2	0	16
29	1	SoU1_1	486	logical	So	U	1	1	17
29	1	SoU2_1	661	logical	So	U	2	1	18
30	2	SoF1_2	917	logical	So	F	1	0	1
30	2	SoT2_2	1141	logical	So	T	2	1	2
30	2	SoT1_2	718	logical	So	T	1	1	3
30	2	SoU2_2	646	logical	So	U	2	1	4
30	3	SoU1_3	647	logical	So	U	1	1	5
30	1	SoT2_1	935	logical	So	T	2	1	6
30	1	SoU2_1	543	logical	So	U	2	1	7
30	1	SoF2_1	662	logical	So	F	2	0	8
30	1	SoU1_1	533	logical	So	U	1	1	9
30	3	SoU2_3	494	logical	So	U	2	1	10
30	3	SoF1_3	650	logical	So	F	1	0	11
30	1	SoT1_1	478	logical	So	T	1	1	12
30	3	SoT2_3	550	logical	So	T	2	1	13
30	1	SoF1_1	583	logical	So	F	1	0	14
30	2	SoF2_2	564	logical	So	F	2	0	15
30	2	SoU1_2	487	logical	So	U	1	1	16
30	3	SoT1_3	443	logical	So	T	1	1	17
30	3	SoF2_3	548	logical	So	F	2	0	18
31	1	SoF2_1	1599	logical	So	F	2	0	1
31	2	SoF2_2	1016	logical	So	F	2	0	2
31	1	SoT1_1	1191	logical	So	T	1	1	3
31	3	SoU1_3	587	logical	So	U	1	1	4
31	1	SoU2_1	2052	logical	So	U	2	1	5
31	2	SoU1_2	732	logical	So	U	1	1	6
31	2	SoT2_2	972	logical	So	T	2	1	7
31	3	SoF1_3	2314	logical	So	F	1	0	8
31	2	SoU2_2	1532	logical	So	U	2	1	9
31	3	SoF2_3	2272	logical	So	F	2	1	10
31	1	SoT2_1	1141	logical	So	T	2	1	11
31	2	SoF1_2	1755	logical	So	F	1	0	12
31	1	SoU1_1	1122	logical	So	U	1	1	13
31	2	SoT1_2	943	logical	So	T	1	1	14
31	1	SoF1_1	1038	logical	So	F	1	0	15
31	3	SoT2_3	985	logical	So	T	2	1	16
31	3	SoT1_3	1100	logical	So	T	1	1	17
31	3	SoU2_3	2048	logical	So	U	2	1	18
32	3	SoU1_3	1352	logical	So	U	1	1	1
32	3	SoT1_3	1037	logical	So	T	1	1	2
32	3	SoT2_3	1211	logical	So	T	2	1	3
32	1	SoT1_1	957	logical	So	T	1	1	4
32	2	SoU1_2	734	logical	So	U	1	1	5
32	1	SoF2_1	1538	logical	So	F	2	0	6
32	3	SoF2_3	3462	logical	So	F	2	0	7
32	1	SoF1_1	1107	logical	So	F	1	0	8
32	2	SoT2_2	672	logical	So	T	2	1	9
32	3	SoU2_3	625	logical	So	U	2	1	10
32	1	SoU2_1	519	logical	So	U	2	1	11
32	2	SoT1_2	592	logical	So	T	1	1	12
32	3	SoF1_3	1355	logical	So	F	1	0	13
32	2	SoU2_2	628	logical	So	U	2	1	14
32	1	SoU1_1	652	logical	So	U	1	1	15
32	2	SoF2_2	993	logical	So	F	2	0	16
32	2	SoF1_2	1037	logical	So	F	1	0	17
32	1	SoT2_1	578	logical	So	T	2	1	18
33	3	SoF1_3	781	logical	So	F	1	0	1
33	1	SoT1_1	732	logical	So	T	1	1	2
33	1	SoF2_1	835	logical	So	F	2	0	3
33	1	SoU2_1	610	logical	So	U	2	1	4
33	2	SoT2_2	804	logical	So	T	2	1	5
33	2	SoU1_2	507	logical	So	U	1	1	6
33	2	SoT1_2	733	logical	So	T	1	1	7
33	3	SoT2_3	570	logical	So	T	2	1	8
33	2	SoF2_2	738	logical	So	F	2	0	9
33	3	SoU1_3	682	logical	So	U	1	1	10
33	1	SoU1_1	824	logical	So	U	1	1	11
33	1	SoF1_1	1937	logical	So	F	1	1	12
33	3	SoF2_3	718	logical	So	F	2	0	13
33	3	SoU2_3	681	logical	So	U	2	1	14
33	1	SoT2_1	701	logical	So	T	2	1	15
33	2	SoF1_2	774	logical	So	F	1	0	16
33	3	SoT1_3	623	logical	So	T	1	1	17
33	2	SoU2_2	607	logical	So	U	2	1	18
34	1	SoF2_1	2382	logical	So	F	2	0	1
34	1	SoU2_1	555	logical	So	U	2	1	2
34	2	SoU1_2	703	logical	So	U	1	1	3
34	3	SoT2_3	692	logical	So	T	2	1	4
34	2	SoT1_2	521	logical	So	T	1	1	5
34	3	SoF2_3	582	logical	So	F	2	0	6
34	2	SoF1_2	561	logical	So	F	1	0	7
34	1	SoT1_1	488	logical	So	T	1	1	8
34	1	SoU1_1	437	logical	So	U	1	1	9
34	1	SoT2_1	1062	logical	So	T	2	1	10
34	3	SoT1_3	818	logical	So	T	1	1	11
34	1	SoF1_1	602	logical	So	F	1	0	12
34	2	SoF2_2	693	logical	So	F	2	0	13
34	2	SoU2_2	627	logical	So	U	2	1	14
34	3	SoU1_3	557	logical	So	U	1	1	15
34	3	SoF1_3	648	logical	So	F	1	0	16
34	2	SoT2_2	604	logical	So	T	2	1	17
34	3	SoU2_3	664	logical	So	U	2	0	18
35	2	SoT2_2	1894	logical	So	T	2	1	1
35	3	SoF2_3	1742	logical	So	F	2	0	2
35	1	SoU1_1	884	logical	So	U	1	1	3
35	1	SoT1_1	1008	logical	So	T	1	1	4
35	2	SoU2_2	1504	logical	So	U	2	1	5
35	2	SoF2_2	863	logical	So	F	2	0	6
35	3	SoT2_3	939	logical	So	T	2	1	7
35	2	SoT1_2	649	logical	So	T	1	1	8
35	1	SoU2_1	806	logical	So	U	2	1	9
35	3	SoU2_3	763	logical	So	U	2	1	10
35	1	SoF1_1	1194	logical	So	F	1	0	11
35	2	SoF1_2	1593	logical	So	F	1	1	12
35	3	SoT1_3	696	logical	So	T	1	1	13
35	1	SoF2_1	782	logical	So	F	2	0	14
35	3	SoU1_3	625	logical	So	U	1	1	15
35	3	SoF1_3	915	logical	So	F	1	0	16
35	1	SoT2_1	737	logical	So	T	2	1	17
35	2	SoU1_2	679	logical	So	U	1	1	18
36	3	SoT2_3	981	logical	So	T	2	1	1
36	3	SoT1_3	580	logical	So	T	1	1	2
36	1	SoU2_1	869	logical	So	U	2	1	3
36	3	SoU2_3	746	logical	So	U	2	1	4
36	2	SoF2_2	1085	logical	So	F	2	0	5
36	1	SoT1_1	965	logical	So	T	1	1	6
36	2	SoT2_2	947	logical	So	T	2	1	7
36	1	SoF2_1	1204	logical	So	F	2	0	8
36	3	SoF2_3	1014	logical	So	F	2	0	9
36	1	SoU1_1	797	logical	So	U	1	1	10
36	3	SoU1_3	797	logical	So	U	1	1	11
36	1	SoF1_1	1229	logical	So	F	1	0	12
36	1	SoT2_1	915	logical	So	T	2	1	13
36	3	SoF1_3	1501	logical	So	F	1	0	14
36	2	SoU1_2	947	logical	So	U	1	1	15
36	2	SoT1_2	988	logical	So	T	1	1	16
36	2	SoF1_2	983	logical	So	F	1	0	17
36	2	SoU2_2	1101	logical	So	U	2	1	18
37	3	SoU2_3	1511	logical	So	U	2	1	1
37	3	SoT2_3	972	logical	So	T	2	1	2
37	1	SoF2_1	1628	logical	So	F	2	0	3
37	1	SoT2_1	1195	logical	So	T	2	1	4
37	3	SoF2_3	1000	logical	So	F	2	0	5
37	3	SoT1_3	812	logical	So	T	1	1	6
37	2	SoU1_2	727	logical	So	U	1	1	7
37	2	SoU2_2	927	logical	So	U	2	1	8
37	1	SoU1_1	953	logical	So	U	1	1	9
37	2	SoT2_2	750	logical	So	T	2	1	10
37	2	SoF2_2	964	logical	So	F	2	0	11
37	2	SoF1_2	906	logical	So	F	1	0	12
37	1	SoT1_1	1043	logical	So	T	1	1	13
37	3	SoU1_3	614	logical	So	U	1	1	14
37	3	SoF1_3	736	logical	So	F	1	0	15
37	2	SoT1_2	694	logical	So	T	1	1	16
37	1	SoU2_1	1101	logical	So	U	2	1	17
37	1	SoF1_1	1307	logical	So	F	1	0	18
38	2	SoU1_2	1672	logical	So	U	1	1	1
38	3	SoU2_3	1640	logical	So	U	2	1	2
38	1	SoF2_1	2134	logical	So	F	2	0	3
38	3	SoT2_3	2766	logical	So	T	2	1	4
38	3	SoT1_3	3142	logical	So	T	1	1	5
38	2	SoU2_2	1568	logical	So	U	2	1	6
38	1	SoU1_1	1264	logical	So	U	1	1	7
38	2	SoT2_2	1694	logical	So	T	2	1	8
38	1	SoU2_1	1472	logical	So	U	2	1	9
38	2	SoT1_2	1284	logical	So	T	1	1	10
38	3	SoF1_3	1780	logical	So	F	1	0	11
38	1	SoT2_1	1432	logical	So	T	2	1	12
38	1	SoF1_1	1640	logical	So	F	1	0	13
38	2	SoF1_2	1672	logical	So	F	1	0	14
38	3	SoU1_3	1240	logical	So	U	1	1	15
38	1	SoT1_1	1324	logical	So	T	1	1	16
38	2	SoF2_2	1430	logical	So	F	2	0	17
38	3	SoF2_3	1392	logical	So	F	2	0	18
39	1	SoU2_1	1788	logical	So	U	2	1	1
39	2	SoU1_2	1452	logical	So	U	1	1	2
39	1	SoF2_1	2195	logical	So	F	2	0	3
39	2	SoU2_2	1238	logical	So	U	2	1	4
39	2	SoT1_2	1683	logical	So	T	1	1	5
39	1	SoU1_1	1101	logical	So	U	1	1	6
39	3	SoT2_3	1240	logical	So	T	2	1	7
39	2	SoT2_2	1269	logical	So	T	2	1	8
39	3	SoF2_3	1295	logical	So	F	2	0	9
39	3	SoU1_3	904	logical	So	U	1	1	10
39	1	SoT2_1	1034	logical	So	T	2	1	11
39	1	SoT1_1	807	logical	So	T	1	1	12
39	2	SoF2_2	907	logical	So	F	2	0	13
39	3	SoF1_3	1762	logical	So	F	1	0	14
39	2	SoF1_2	1072	logical	So	F	1	0	15
39	3	SoT1_3	1005	logical	So	T	1	1	16
39	3	SoU2_3	998	logical	So	U	2	1	17
39	1	SoF1_1	1197	logical	So	F	1	0	18
40	1	SoF1_1	3835	logical	So	F	1	0	1
40	3	SoU2_3	2669	logical	So	U	2	1	2
40	2	SoF1_2	2565	logical	So	F	1	0	3
40	2	SoU1_2	1160	logical	So	U	1	1	4
40	2	SoF2_2	2757	logical	So	F	2	0	5
40	3	SoU1_3	995	logical	So	U	1	1	6
40	1	SoU1_1	682	logical	So	U	1	1	7
40	3	SoF2_3	1094	logical	So	F	2	0	8
40	3	SoT2_3	1204	logical	So	T	2	1	9
40	2	SoT2_2	863	logical	So	T	2	1	10
40	2	SoT1_2	726	logical	So	T	1	1	11
40	3	SoT1_3	676	logical	So	T	1	1	12
40	1	SoF2_1	1215	logical	So	F	2	0	13
40	1	SoT1_1	1091	logical	So	T	1	1	14
40	3	SoF1_3	1082	logical	So	F	1	0	15
40	2	SoU2_2	1949	logical	So	U	2	1	16
40	1	SoT2_1	1142	logical	So	T	2	1	17
40	1	SoU2_1	640	logical	So	U	2	1	18
41	2	SoU1_2	582	logical	So	U	1	1	1
41	1	SoF2_1	1402	logical	So	F	2	0	2
41	1	SoU2_1	808	logical	So	U	2	1	3
41	1	SoT1_1	738	logical	So	T	1	1	4
41	1	SoU1_1	534	logical	So	U	1	1	5
41	3	SoF2_3	1198	logical	So	F	2	0	6
41	3	SoU2_3	682	logical	So	U	2	1	7
41	3	SoT2_3	596	logical	So	T	2	1	8
41	2	SoF2_2	830	logical	So	F	2	0	9
41	3	SoF1_3	494	logical	So	F	1	0	10
41	3	SoT1_3	560	logical	So	T	1	1	11
41	1	SoF1_1	522	logical	So	F	1	0	12
41	3	SoU1_3	364	logical	So	U	1	1	13
41	2	SoT1_2	464	logical	So	T	1	1	14
41	2	SoT2_2	634	logical	So	T	2	1	15
41	2	SoF1_2	502	logical	So	F	1	0	16
41	2	SoU2_2	928	logical	So	U	2	1	17
41	1	SoT2_1	534	logical	So	T	2	1	18
42	3	SoU2_3	894	logical	So	U	2	1	1
42	3	SoF1_3	701	logical	So	F	1	0	2
42	1	SoT1_1	790	logical	So	T	1	1	3
42	3	SoU1_3	879	logical	So	U	1	1	4
42	2	SoT1_2	614	logical	So	T	1	1	5
42	1	SoF1_1	566	logical	So	F	1	0	6
42	1	SoT2_1	1096	logical	So	T	2	1	7
42	2	SoU2_2	839	logical	So	U	2	1	8
42	3	SoT1_3	847	logical	So	T	1	1	9
42	1	SoU2_1	535	logical	So	U	2	1	10
42	3	SoT2_3	518	logical	So	T	2	1	11
42	2	SoF1_2	518	logical	So	F	1	0	12
42	2	SoU1_2	606	logical	So	U	1	1	13
42	2	SoF2_2	1127	logical	So	F	2	0	14
42	1	SoU1_1	469	logical	So	U	1	1	15
42	3	SoF2_3	655	logical	So	F	2	0	16
42	1	SoF2_1	645	logical	So	F	2	0	17
42	2	SoT2_2	582	logical	So	T	2	1	18
43	2	SoU1_2	939	logical	So	U	1	1	1
43	2	SoT1_2	660	logical	So	T	1	1	2
43	1	SoF2_1	1043	logical	So	F	2	0	3
43	2	SoF2_2	1005	logical	So	F	2	0	4
43	2	SoF1_2	1012	logical	So	F	1	0	5
43	1	SoT2_1	1228	logical	So	T	2	1	6
43	3	SoT1_3	2659	logical	So	T	1	1	7
43	1	SoU1_1	861	logical	So	U	1	1	8
43	2	SoU2_2	1292	logical	So	U	2	1	9
43	1	SoU2_1	700	logical	So	U	2	1	10
43	2	SoT2_2	555	logical	So	T	2	1	11
43	1	SoT1_1	677	logical	So	T	1	1	12
43	3	SoF1_3	909	logical	So	F	1	0	13
43	1	SoF1_1	909	logical	So	F	1	0	14
43	3	SoU1_3	619	logical	So	U	1	1	15
43	3	SoT2_3	573	logical	So	T	2	1	16
43	3	SoU2_3	517	logical	So	U	2	1	17
43	3	SoF2_3	812	logical	So	F	2	0	18
44	1	SoU1_1	1782	logical	So	U	1	1	1
44	2	SoU1_2	893	logical	So	U	1	1	2
44	1	SoU2_1	1453	logical	So	U	2	1	3
44	2	SoT1_2	1807	logical	So	T	1	1	4
44	3	SoF2_3	1414	logical	So	F	2	0	5
44	2	SoT2_2	1182	logical	So	T	2	1	6
44	3	SoT2_3	886	logical	So	T	2	1	7
44	1	SoF2_1	574	logical	So	F	2	0	8
44	2	SoF1_2	1455	logical	So	F	1	0	9
44	3	SoU2_3	1461	logical	So	U	2	1	10
44	3	SoU1_3	686	logical	So	U	1	1	11
44	1	SoT2_1	733	logical	So	T	2	1	12
44	1	SoF1_1	620	logical	So	F	1	0	13
44	3	SoT1_3	1263	logical	So	T	1	1	14
44	2	SoF2_2	1014	logical	So	F	2	0	15
44	1	SoT1_1	669	logical	So	T	1	1	16
44	3	SoF1_3	582	logical	So	F	1	0	17
44	2	SoU2_2	549	logical	So	U	2	1	18
45	2	SoU1_2	1021	logical	So	U	1	1	1
45	1	SoU2_1	925	logical	So	U	2	1	2
45	2	SoU2_2	605	logical	So	U	2	1	3
45	2	SoT2_2	1665	logical	So	T	2	1	4
45	2	SoT1_2	958	logical	So	T	1	1	5
45	1	SoT1_1	846	logical	So	T	1	1	6
45	3	SoU1_3	590	logical	So	U	1	1	7
45	3	SoU2_3	653	logical	So	U	2	1	8
45	3	SoF2_3	786	logical	So	F	2	0	9
45	1	SoF1_1	655	logical	So	F	1	0	10
45	1	SoU1_1	572	logical	So	U	1	1	11
45	1	SoT2_1	717	logical	So	T	2	1	12
45	2	SoF1_2	1006	logical	So	F	1	0	13
45	3	SoT2_3	593	logical	So	T	2	1	14
45	2	SoF2_2	702	logical	So	F	2	0	15
45	3	SoT1_3	509	logical	So	T	1	1	16
45	1	SoF2_1	735	logical	So	F	2	0	17
45	3	SoF1_3	655	logical	So	F	1	0	18
46	3	SoF1_3	1213	logical	So	F	1	0	1
46	3	SoF2_3	1620	logical	So	F	2	0	2
46	1	SoU1_1	1011	logical	So	U	1	1	3
46	1	SoF1_1	755	logical	So	F	1	0	4
46	1	SoT2_1	1725	logical	So	T	2	1	5
46	2	SoU2_2	794	logical	So	U	2	1	6
46	3	SoU2_3	1524	logical	So	U	2	1	7
46	1	SoF2_1	870	logical	So	F	2	0	8
46	3	SoT2_3	784	logical	So	T	2	1	9
46	2	SoT1_2	636	logical	So	T	1	1	10
46	2	SoF2_2	1176	logical	So	F	2	0	11
46	1	SoT1_1	576	logical	So	T	1	1	12
46	2	SoF1_2	1666	logical	So	F	1	0	13
46	3	SoT1_3	733	logical	So	T	1	1	14
46	3	SoU1_3	777	logical	So	U	1	1	15
46	2	SoT2_2	759	logical	So	T	2	1	16
46	1	SoU2_1	523	logical	So	U	2	1	17
46	2	SoU1_2	708	logical	So	U	1	1	18
47	2	SoU1_2	1500	logical	So	U	1	1	1
47	3	SoT2_3	970	logical	So	T	2	1	2
47	2	SoF1_2	921	logical	So	F	1	0	3
47	1	SoT2_1	1589	logical	So	T	2	1	4
47	3	SoF2_3	911	logical	So	F	2	0	5
47	1	SoT1_1	962	logical	So	T	1	1	6
47	2	SoF2_2	1253	logical	So	F	2	0	7
47	2	SoU2_2	2727	logical	So	U	2	1	8
47	2	SoT2_2	840	logical	So	T	2	1	9
47	1	SoF1_1	1812	logical	So	F	1	0	10
47	3	SoF1_3	1041	logical	So	F	1	0	11
47	3	SoT1_3	605	logical	So	T	1	1	12
47	2	SoT1_2	598	logical	So	T	1	1	13
47	1	SoF2_1	1351	logical	So	F	2	0	14
47	3	SoU1_3	651	logical	So	U	1	1	15
47	1	SoU1_1	619	logical	So	U	1	1	16
47	1	SoU2_1	730	logical	So	U	2	0	17
47	3	SoU2_3	550	logical	So	U	2	0	18
48	1	SoF2_1	1868	logical	So	F	2	0	1
48	3	SoU1_3	980	logical	So	U	1	1	2
48	1	SoF1_1	1116	logical	So	F	1	0	3
48	2	SoF2_2	1044	logical	So	F	2	0	4
48	2	SoT2_2	1421	logical	So	T	2	1	5
48	3	SoT2_3	964	logical	So	T	2	1	6
48	2	SoF1_2	1020	logical	So	F	1	0	7
48	2	SoT1_2	948	logical	So	T	1	1	8
48	1	SoT1_1	845	logical	So	T	1	1	9
48	1	SoT2_1	1068	logical	So	T	2	1	10
48	2	SoU2_2	916	logical	So	U	2	1	11
48	1	SoU2_1	995	logical	So	U	2	1	12
48	2	SoU1_2	893	logical	So	U	1	1	13
48	1	SoU1_1	1028	logical	So	U	1	1	14
48	3	SoF1_3	988	logical	So	F	1	0	15
48	3	SoU2_3	852	logical	So	U	2	1	16
48	3	SoT1_3	892	logical	So	T	1	1	17
48	3	SoF2_3	812	logical	So	F	2	0	18
49	1	SoU2_1	2467	logical	So	U	2	1	1
49	2	SoT1_2	1136	logical	So	T	1	1	2
49	3	SoF2_3	953	logical	So	F	2	0	3
49	1	SoF1_1	1483	logical	So	F	1	0	4
49	2	SoF1_2	757	logical	So	F	1	0	5
49	1	SoU1_1	821	logical	So	U	1	1	6
49	1	SoT1_1	1037	logical	So	T	1	1	7
49	3	SoT1_3	877	logical	So	T	1	1	8
49	3	SoU1_3	863	logical	So	U	1	1	9
49	2	SoT2_2	835	logical	So	T	2	1	10
49	3	SoU2_3	941	logical	So	U	2	1	11
49	2	SoF2_2	684	logical	So	F	2	0	12
49	1	SoT2_1	919	logical	So	T	2	1	13
49	3	SoT2_3	534	logical	So	T	2	1	14
49	3	SoF1_3	708	logical	So	F	1	0	15
49	1	SoF2_1	719	logical	So	F	2	1	16
49	2	SoU2_2	1222	logical	So	U	2	1	17
49	2	SoU1_2	902	logical	So	U	1	1	18
50	2	SoT1_2	1014	logical	So	T	1	1	1
50	2	SoT2_2	766	logical	So	T	2	1	2
50	2	SoU1_2	586	logical	So	U	1	1	3
50	1	SoT2_1	893	logical	So	T	2	1	4
50	3	SoU2_3	590	logical	So	U	2	1	5
50	1	SoF2_1	1060	logical	So	F	2	0	6
50	2	SoF1_2	676	logical	So	F	1	0	7
50	2	SoF2_2	645	logical	So	F	2	0	8
50	1	SoF1_1	630	logical	So	F	1	0	9
50	3	SoF1_3	556	logical	So	F	1	0	10
50	1	SoU1_1	554	logical	So	U	1	1	11
50	3	SoT1_3	1037	logical	So	T	1	1	12
50	3	SoT2_3	684	logical	So	T	2	1	13
50	1	SoU2_1	675	logical	So	U	2	1	14
50	3	SoF2_3	878	logical	So	F	2	0	15
50	2	SoU2_2	652	logical	So	U	2	1	16
50	3	SoU1_3	629	logical	So	U	1	1	17
50	1	SoT1_1	556	logical	So	T	1	1	18
51	3	SoF2_3	867	logical	So	F	2	0	1
51	3	SoU1_3	668	logical	So	U	1	1	2
51	2	SoT1_2	965	logical	So	T	1	1	3
51	1	SoU1_1	380	logical	So	U	1	1	4
51	1	SoT1_1	578	logical	So	T	1	1	5
51	1	SoT2_1	548	logical	So	T	2	1	6
51	3	SoT1_3	524	logical	So	T	1	1	7
51	2	SoU2_2	571	logical	So	U	2	1	8
51	2	SoF1_2	843	logical	So	F	1	0	9
51	1	SoU2_1	540	logical	So	U	2	1	10
51	3	SoF1_3	947	logical	So	F	1	0	11
51	3	SoU2_3	630	logical	So	U	2	1	12
51	2	SoT2_2	580	logical	So	T	2	1	13
51	1	SoF1_1	820	logical	So	F	1	0	14
51	2	SoF2_2	836	logical	So	F	2	0	15
51	2	SoU1_2	492	logical	So	U	1	1	16
51	3	SoT2_3	516	logical	So	T	2	1	17
51	1	SoF2_1	940	logical	So	F	2	0	18
52	3	SoT1_3	724	logical	So	T	1	1	1
52	2	SoF2_2	3620	logical	So	F	2	0	2
52	1	SoT1_1	541	logical	So	T	1	1	3
52	3	SoU1_3	668	logical	So	U	1	1	4
52	1	SoU1_1	396	logical	So	U	1	1	5
52	1	SoF1_1	749	logical	So	F	1	0	6
52	3	SoT2_3	1341	logical	So	T	2	1	7
52	3	SoU2_3	510	logical	So	U	2	1	8
52	3	SoF2_3	645	logical	So	F	2	0	9
52	2	SoU1_2	437	logical	So	U	1	1	10
52	2	SoT2_2	678	logical	So	T	2	1	11
52	1	SoF2_1	934	logical	So	F	2	0	12
52	2	SoT1_2	436	logical	So	T	1	1	13
52	1	SoU2_1	477	logical	So	U	2	1	14
52	3	SoF1_3	501	logical	So	F	1	0	15
52	2	SoU2_2	467	logical	So	U	2	1	16
52	2	SoF1_2	517	logical	So	F	1	0	17
52	1	SoT2_1	476	logical	So	T	2	1	18
53	3	SoF1_3	727	logical	So	F	1	0	1
53	3	SoU2_3	624	logical	So	U	2	1	2
53	1	SoU2_1	565	logical	So	U	2	1	3
53	2	SoU1_2	528	logical	So	U	1	1	4
53	1	SoF1_1	535	logical	So	F	1	0	5
53	1	SoU1_1	472	logical	So	U	1	1	6
53	3	SoT2_3	687	logical	So	T	2	1	7
53	2	SoF2_2	775	logical	So	F	2	0	8
53	3	SoU1_3	497	logical	So	U	1	1	9
53	3	SoT1_3	718	logical	So	T	1	1	10
53	1	SoT1_1	576	logical	So	T	1	1	11
53	2	SoT2_2	567	logical	So	T	2	1	12
53	1	SoT2_1	536	logical	So	T	2	1	13
53	2	SoU2_2	496	logical	So	U	2	1	14
53	3	SoF2_3	594	logical	So	F	2	0	15
53	1	SoF2_1	625	logical	So	F	2	0	16
53	2	SoT1_2	463	logical	So	T	1	1	17
53	2	SoF1_2	618	logical	So	F	1	0	18
54	2	SoT1_2	776	logical	So	T	1	1	1
54	2	SoU1_2	598	logical	So	U	1	1	2
54	1	SoF1_1	1535	logical	So	F	1	0	3
54	3	SoT1_3	749	logical	So	T	1	1	4
54	1	SoF2_1	1334	logical	So	F	2	0	5
54	3	SoF1_3	1368	logical	So	F	1	0	6
54	2	SoT2_2	1516	logical	So	T	2	1	7
54	1	SoU2_1	1216	logical	So	U	2	1	8
54	2	SoF2_2	1195	logical	So	F	2	0	9
54	1	SoT2_1	1466	logical	So	T	2	1	10
54	3	SoU2_3	829	logical	So	U	2	1	11
54	1	SoU1_1	832	logical	So	U	1	1	12
54	3	SoT2_3	727	logical	So	T	2	1	13
54	2	SoF1_2	1037	logical	So	F	1	0	14
54	3	SoU1_3	887	logical	So	U	1	1	15
54	2	SoU2_2	758	logical	So	U	2	1	16
54	1	SoT1_1	1618	logical	So	T	1	1	17
54	3	SoF2_3	1742	logical	So	F	2	0	18
55	2	SoU1_2	580	logical	So	U	1	1	1
55	1	SoU1_1	377	logical	So	U	1	1	2
55	3	SoF2_3	477	logical	So	F	2	1	3
55	1	SoF2_1	524	logical	So	F	2	0	4
55	1	SoF1_1	685	logical	So	F	1	0	5
55	1	SoT1_1	587	logical	So	T	1	1	6
55	2	SoT2_2	580	logical	So	T	2	1	7
55	3	SoT1_3	815	logical	So	T	1	1	8
55	3	SoU2_3	455	logical	So	U	2	1	9
55	2	SoF2_2	705	logical	So	F	2	0	10
55	3	SoT2_3	550	logical	So	T	2	1	11
55	3	SoU1_3	613	logical	So	U	1	1	12
55	1	SoT2_1	551	logical	So	T	2	1	13
55	3	SoF1_3	564	logical	So	F	1	0	14
55	2	SoF1_2	643	logical	So	F	1	0	15
55	2	SoU2_2	404	logical	So	U	2	1	16
55	2	SoT1_2	490	logical	So	T	1	1	17
55	1	SoU2_1	547	logical	So	U	2	1	18
56	2	SoF2_2	1688	logical	So	F	2	0	1
56	2	SoT2_2	786	logical	So	T	2	1	2
56	1	SoT2_1	822	logical	So	T	2	1	3
56	2	SoU1_2	794	logical	So	U	1	1	4
56	3	SoT2_3	652	logical	So	T	2	1	5
56	2	SoT1_2	24	logical	So	T	1	1	6
56	1	SoF2_1	1044	logical	So	F	2	0	7
56	3	SoT1_3	486	logical	So	T	1	1	8
56	3	SoU2_3	635	logical	So	U	2	1	9
56	2	SoF1_2	1742	logical	So	F	1	0	10
56	1	SoT1_1	518	logical	So	T	1	1	11
56	1	SoU2_1	394	logical	So	U	2	1	12
56	1	SoF1_1	806	logical	So	F	1	0	13
56	1	SoU1_1	409	logical	So	U	1	1	14
56	3	SoF2_3	1035	logical	So	F	2	1	15
56	3	SoU1_3	928	logical	So	U	1	1	16
56	3	SoF1_3	859	logical	So	F	1	0	17
56	2	SoU2_2	597	logical	So	U	2	1	18
57	2	SoU1_2	645	logical	So	U	1	1	1
57	1	SoT1_1	1565	logical	So	T	1	1	2
57	3	SoU2_3	606	logical	So	U	2	1	3
57	3	SoT1_3	659	logical	So	T	1	1	4
57	1	SoT2_1	540	logical	So	T	2	1	5
57	1	SoF2_1	596	logical	So	F	2	0	6
57	2	SoF1_2	538	logical	So	F	1	0	7
57	2	SoF2_2	524	logical	So	F	2	0	8
57	3	SoF1_3	477	logical	So	F	1	0	9
57	1	SoF1_1	539	logical	So	F	1	0	10
57	3	SoF2_3	517	logical	So	F	2	0	11
57	2	SoT2_2	549	logical	So	T	2	1	12
57	3	SoT2_3	389	logical	So	T	2	1	13
57	1	SoU1_1	548	logical	So	U	1	1	14
57	2	SoT1_2	292	logical	So	T	1	1	15
57	3	SoU1_3	451	logical	So	U	1	1	16
57	2	SoU2_2	933	logical	So	U	2	1	17
57	1	SoU2_1	442	logical	So	U	2	1	18
58	3	SoU1_3	852	logical	So	U	1	1	1
58	2	SoU2_2	958	logical	So	U	2	1	2
58	2	SoT1_2	875	logical	So	T	1	1	3
58	3	SoT2_3	922	logical	So	T	2	1	4
58	1	SoU2_1	844	logical	So	U	2	1	5
58	2	SoF2_2	922	logical	So	F	2	1	6
58	1	SoF1_1	781	logical	So	F	1	1	7
58	3	SoF1_3	952	logical	So	F	1	0	8
58	2	SoU1_2	703	logical	So	U	1	1	9
58	1	SoU1_1	781	logical	So	U	1	1	10
58	3	SoT1_3	1110	logical	So	T	1	1	11
58	2	SoF1_2	876	logical	So	F	1	1	12
58	3	SoF2_3	1313	logical	So	F	2	0	13
58	2	SoT2_2	936	logical	So	T	2	1	14
58	1	SoT2_1	1626	logical	So	T	2	1	15
58	1	SoT1_1	793	logical	So	T	1	1	16
58	3	SoU2_3	985	logical	So	U	2	1	17
58	1	SoF2_1	891	logical	So	F	2	0	18
59	1	SoF1_1	1471	logical	So	F	1	0	1
59	3	SoU2_3	1692	logical	So	U	2	0	2
59	2	SoT1_2	951	logical	So	T	1	1	3
59	2	SoF2_2	883	logical	So	F	2	0	4
59	2	SoF1_2	856	logical	So	F	1	0	5
59	3	SoF1_3	870	logical	So	F	1	0	6
59	1	SoF2_1	668	logical	So	F	2	0	7
59	2	SoU1_2	616	logical	So	U	1	1	8
59	1	SoU1_1	563	logical	So	U	1	1	9
59	2	SoT2_2	844	logical	So	T	2	1	10
59	1	SoT1_1	696	logical	So	T	1	1	11
59	1	SoU2_1	1660	logical	So	U	2	1	12
59	3	SoT1_3	630	logical	So	T	1	1	13
59	3	SoU1_3	527	logical	So	U	1	1	14
59	3	SoF2_3	599	logical	So	F	2	0	15
59	2	SoU2_2	531	logical	So	U	2	1	16
59	1	SoT2_1	700	logical	So	T	2	1	17
59	3	SoT2_3	492	logical	So	T	2	1	18
60	1	LoT1_1	877	logical	Lo	T	1	1	1
60	3	LoU2_3	2044	logical	Lo	U	2	1	2
60	2	LoF2_2	766	logical	Lo	F	2	0	3
60	2	LoU2_2	580	logical	Lo	U	2	1	4
60	3	LoF2_3	506	logical	Lo	F	2	1	5
60	1	LoT2_1	862	logical	Lo	T	2	1	6
60	2	LoF1_2	693	logical	Lo	F	1	0	7
60	3	LoT1_3	532	logical	Lo	T	1	1	8
60	2	LoU1_2	702	logical	Lo	U	1	1	9
60	3	LoT2_3	1147	logical	Lo	T	2	1	10
60	2	LoT1_2	790	logical	Lo	T	1	1	11
60	1	LoU1_1	589	logical	Lo	U	1	1	12
60	3	LoF1_3	507	logical	Lo	F	1	0	13
60	2	LoT2_2	483	logical	Lo	T	2	1	14
60	1	LoU2_1	790	logical	Lo	U	2	1	15
60	1	LoF1_1	459	logical	Lo	F	1	0	16
60	3	LoU1_3	680	logical	Lo	U	1	0	17
60	1	LoF2_1	1531	logical	Lo	F	2	0	18
61	2	LoF1_2	2839	logical	Lo	F	1	0	1
61	1	LoF1_1	2635	logical	Lo	F	1	0	2
61	2	LoF2_2	2368	logical	Lo	F	2	0	3
61	1	LoT2_1	1068	logical	Lo	T	2	1	4
61	3	LoT1_3	547	logical	Lo	T	1	1	5
61	1	LoU1_1	689	logical	Lo	U	1	1	6
61	2	LoU1_2	673	logical	Lo	U	1	1	7
61	1	LoF2_1	748	logical	Lo	F	2	0	8
61	2	LoU2_2	869	logical	Lo	U	2	1	9
61	3	LoF1_3	2429	logical	Lo	F	1	0	10
61	2	LoT1_2	487	logical	Lo	T	1	1	11
61	3	LoT2_3	537	logical	Lo	T	2	1	12
61	3	LoU2_3	537	logical	Lo	U	2	1	13
61	3	LoF2_3	336	logical	Lo	F	2	1	14
61	1	LoT1_1	771	logical	Lo	T	1	1	15
61	3	LoU1_3	734	logical	Lo	U	1	1	16
61	1	LoU2_1	606	logical	Lo	U	2	1	17
61	2	LoT2_2	647	logical	Lo	T	2	1	18
62	1	LoF2_1	2855	logical	Lo	F	2	0	1
62	2	LoU1_2	1600	logical	Lo	U	1	1	2
62	3	LoU2_3	1471	logical	Lo	U	2	1	3
62	3	LoT1_3	1023	logical	Lo	T	1	1	4
62	3	LoF1_3	1050	logical	Lo	F	1	0	5
62	3	LoF2_3	1333	logical	Lo	F	2	0	6
62	2	LoF2_2	1109	logical	Lo	F	2	0	7
62	2	LoU2_2	885	logical	Lo	U	2	1	8
62	1	LoT2_1	1427	logical	Lo	T	2	1	9
62	2	LoT1_2	744	logical	Lo	T	1	1	10
62	3	LoU1_3	879	logical	Lo	U	1	1	11
62	2	LoF1_2	1983	logical	Lo	F	1	0	12
62	1	LoU2_1	1095	logical	Lo	U	2	0	13
62	1	LoT1_1	1546	logical	Lo	T	1	0	14
62	2	LoT2_2	876	logical	Lo	T	2	0	15
62	3	LoT2_3	762	logical	Lo	T	2	1	16
62	1	LoU1_1	865	logical	Lo	U	1	1	17
62	1	LoF1_1	862	logical	Lo	F	1	0	18
63	1	LoT2_1	3564	logical	Lo	T	2	1	1
63	3	LoT2_3	613	logical	Lo	T	2	1	2
63	3	LoT1_3	1290	logical	Lo	T	1	1	3
63	1	LoU2_1	1279	logical	Lo	U	2	1	4
63	2	LoU1_2	701	logical	Lo	U	1	1	5
63	2	LoU2_2	686	logical	Lo	U	2	1	6
63	2	LoT2_2	593	logical	Lo	T	2	1	7
63	2	LoF2_2	1342	logical	Lo	F	2	0	8
63	2	LoF1_2	1413	logical	Lo	F	1	0	9
63	3	LoU2_3	794	logical	Lo	U	2	1	10
63	2	LoT1_2	430	logical	Lo	T	1	1	11
63	3	LoF2_3	1291	logical	Lo	F	2	0	12
63	1	LoT1_1	463	logical	Lo	T	1	1	13
63	3	LoF1_3	1055	logical	Lo	F	1	0	14
63	1	LoF2_1	1044	logical	Lo	F	2	0	15
63	1	LoU1_1	926	logical	Lo	U	1	1	16
63	1	LoF1_1	1037	logical	Lo	F	1	0	17
63	3	LoU1_3	437	logical	Lo	U	1	1	18
64	2	LoU2_2	3307	logical	Lo	U	2	1	1
64	1	LoF1_1	1613	logical	Lo	F	1	0	2
64	3	LoT1_3	2267	logical	Lo	T	1	1	3
64	3	LoT2_3	884	logical	Lo	T	2	1	4
64	3	LoF1_3	1316	logical	Lo	F	1	0	5
64	2	LoF1_2	922	logical	Lo	F	1	0	6
64	1	LoU1_1	758	logical	Lo	U	1	1	7
64	1	LoF2_1	1036	logical	Lo	F	2	0	8
64	3	LoU1_3	645	logical	Lo	U	1	1	9
64	2	LoT2_2	827	logical	Lo	T	2	1	10
64	3	LoU2_3	917	logical	Lo	U	2	1	11
64	2	LoF2_2	1132	logical	Lo	F	2	0	12
64	1	LoT2_1	637	logical	Lo	T	2	1	13
64	1	LoT1_1	595	logical	Lo	T	1	1	14
64	3	LoF2_3	924	logical	Lo	F	2	0	15
64	1	LoU2_1	559	logical	Lo	U	2	1	16
64	2	LoU1_2	527	logical	Lo	U	1	1	17
64	2	LoT1_2	628	logical	Lo	T	1	1	18
65	1	LoT2_1	1812	logical	Lo	T	2	1	1
65	2	LoT2_2	566	logical	Lo	T	2	1	2
65	1	LoU2_1	475	logical	Lo	U	2	1	3
65	3	LoU1_3	952	logical	Lo	U	1	1	4
65	3	LoT2_3	758	logical	Lo	T	2	1	5
65	2	LoU1_2	479	logical	Lo	U	1	1	6
65	3	LoU2_3	686	logical	Lo	U	2	1	7
65	3	LoT1_3	723	logical	Lo	T	1	1	8
65	1	LoT1_1	508	logical	Lo	T	1	1	9
65	1	LoF2_1	1980	logical	Lo	F	2	0	10
65	2	LoT1_2	593	logical	Lo	T	1	1	11
65	3	LoF1_3	808	logical	Lo	F	1	0	12
65	1	LoU1_1	514	logical	Lo	U	1	1	13
65	1	LoF1_1	526	logical	Lo	F	1	0	14
65	2	LoF2_2	726	logical	Lo	F	2	0	15
65	3	LoF2_3	635	logical	Lo	F	2	0	16
65	2	LoU2_2	1591	logical	Lo	U	2	1	17
65	2	LoF1_2	646	logical	Lo	F	1	0	18
66	1	LoU2_1	2832	logical	Lo	U	2	1	1
66	1	LoT1_1	1096	logical	Lo	T	1	1	2
66	2	LoT1_2	946	logical	Lo	T	1	1	3
66	3	LoT1_3	732	logical	Lo	T	1	1	4
66	3	LoU2_3	1180	logical	Lo	U	2	1	5
66	3	LoF2_3	2116	logical	Lo	F	2	0	6
66	1	LoF2_1	884	logical	Lo	F	2	0	7
66	1	LoF1_1	1142	logical	Lo	F	1	0	8
66	1	LoU1_1	836	logical	Lo	U	1	1	9
66	3	LoU1_3	1284	logical	Lo	U	1	1	10
66	2	LoF1_2	802	logical	Lo	F	1	0	11
66	2	LoU1_2	1124	logical	Lo	U	1	1	12
66	1	LoT2_1	1076	logical	Lo	T	2	1	13
66	2	LoF2_2	946	logical	Lo	F	2	0	14
66	3	LoT2_3	782	logical	Lo	T	2	1	15
66	2	LoU2_2	1002	logical	Lo	U	2	1	16
66	2	LoT2_2	738	logical	Lo	T	2	1	17
66	3	LoF1_3	754	logical	Lo	F	1	0	18
67	2	LoF1_2	1499	logical	Lo	F	1	0	1
67	2	LoU1_2	2539	logical	Lo	U	1	1	2
67	2	LoT1_2	1298	logical	Lo	T	1	1	3
67	3	LoU1_3	1449	logical	Lo	U	1	1	4
67	1	LoF1_1	1211	logical	Lo	F	1	0	5
67	1	LoU1_1	1219	logical	Lo	U	1	1	6
67	2	LoU2_2	5059	logical	Lo	U	2	1	7
67	1	LoF2_1	1419	logical	Lo	F	2	0	8
67	1	LoT1_1	1067	logical	Lo	T	1	1	9
67	3	LoT1_3	884	logical	Lo	T	1	1	10
67	3	LoF2_3	832	logical	Lo	F	2	0	11
67	3	LoT2_3	5606	logical	Lo	T	2	1	12
67	2	LoT2_2	1047	logical	Lo	T	2	1	13
67	3	LoU2_3	1525	logical	Lo	U	2	1	14
67	1	LoT2_1	644	logical	Lo	T	2	1	15
67	1	LoU2_1	1180	logical	Lo	U	2	1	16
67	2	LoF2_2	932	logical	Lo	F	2	0	17
67	3	LoF1_3	1157	logical	Lo	F	1	0	18
68	3	LoT2_3	2921	logical	Lo	T	2	1	1
68	3	LoU1_3	8891	logical	Lo	U	1	0	2
68	2	LoT2_2	803	logical	Lo	T	2	1	3
68	2	LoT1_2	1402	logical	Lo	T	1	1	4
68	2	LoF1_2	1451	logical	Lo	F	1	0	5
68	3	LoU2_3	2395	logical	Lo	U	2	1	6
68	1	LoU1_1	5713	logical	Lo	U	1	0	7
68	1	LoF2_1	1675	logical	Lo	F	2	0	8
68	1	LoT1_1	1371	logical	Lo	T	1	1	9
68	3	LoF1_3	1283	logical	Lo	F	1	0	10
68	3	LoT1_3	2939	logical	Lo	T	1	1	11
68	1	LoF1_1	1147	logical	Lo	F	1	0	12
68	3	LoF2_3	1353	logical	Lo	F	2	0	13
68	2	LoU2_2	2107	logical	Lo	U	2	1	14
68	1	LoT2_1	735	logical	Lo	T	2	1	15
68	2	LoF2_2	1035	logical	Lo	F	2	0	16
68	1	LoU2_1	1948	logical	Lo	U	2	1	17
68	2	LoU1_2	2395	logical	Lo	U	1	0	18
69	2	LoT1_2	3401	logical	Lo	T	1	1	1
69	1	LoU1_1	3497	logical	Lo	U	1	1	2
69	3	LoT1_3	1993	logical	Lo	T	1	1	3
69	1	LoU2_1	2623	logical	Lo	U	2	0	4
69	2	LoU2_2	2243	logical	Lo	U	2	0	5
69	3	LoF2_3	2360	logical	Lo	F	2	0	6
69	3	LoU2_3	3436	logical	Lo	U	2	0	7
69	2	LoF2_2	2218	logical	Lo	F	2	0	8
69	2	LoT2_2	1594	logical	Lo	T	2	1	9
69	2	LoU1_2	1535	logical	Lo	U	1	1	10
69	3	LoT2_3	1461	logical	Lo	T	2	1	11
69	1	LoT2_1	1321	logical	Lo	T	2	1	12
69	3	LoU1_3	1515	logical	Lo	U	1	1	13
69	3	LoF1_3	931	logical	Lo	F	1	0	14
69	1	LoF2_1	674	logical	Lo	F	2	0	15
69	2	LoF1_2	758	logical	Lo	F	1	0	16
69	1	LoF1_1	880	logical	Lo	F	1	0	17
69	1	LoT1_1	1441	logical	Lo	T	1	1	18
70	1	LoU1_1	1406	logical	Lo	U	1	1	1
70	2	LoU2_2	1464	logical	Lo	U	2	1	2
70	3	LoU2_3	1662	logical	Lo	U	2	1	3
70	2	LoF2_2	1598	logical	Lo	F	2	0	4
70	2	LoF1_2	800	logical	Lo	F	1	0	5
70	2	LoT1_2	888	logical	Lo	T	1	1	6
70	2	LoT2_2	720	logical	Lo	T	2	1	7
70	1	LoF1_1	784	logical	Lo	F	1	0	8
70	2	LoU1_2	738	logical	Lo	U	1	1	9
70	1	LoT2_1	1192	logical	Lo	T	2	1	10
70	1	LoT1_1	626	logical	Lo	T	1	1	11
70	1	LoF2_1	608	logical	Lo	F	2	0	12
70	3	LoF1_3	714	logical	Lo	F	1	0	13
70	3	LoT1_3	684	logical	Lo	T	1	1	14
70	1	LoU2_1	688	logical	Lo	U	2	0	15
70	3	LoT2_3	1820	logical	Lo	T	2	1	16
70	3	LoU1_3	714	logical	Lo	U	1	1	17
70	3	LoF2_3	784	logical	Lo	F	2	0	18
71	1	LoF1_1	1194	logical	Lo	F	1	0	1
71	2	LoF1_2	649	logical	Lo	F	1	0	2
71	1	LoF2_1	3001	logical	Lo	F	2	0	3
71	1	LoT2_1	2031	logical	Lo	T	2	1	4
71	2	LoU1_2	1117	logical	Lo	U	1	1	5
71	3	LoU1_3	782	logical	Lo	U	1	1	6
71	3	LoU2_3	1415	logical	Lo	U	2	1	7
71	1	LoT1_1	790	logical	Lo	T	1	1	8
71	3	LoF2_3	788	logical	Lo	F	2	0	9
71	3	LoT1_3	653	logical	Lo	T	1	1	10
71	3	LoF1_3	688	logical	Lo	F	1	0	11
71	2	LoT2_2	727	logical	Lo	T	2	1	12
71	2	LoF2_2	828	logical	Lo	F	2	0	13
71	1	LoU1_1	878	logical	Lo	U	1	1	14
71	2	LoU2_2	1146	logical	Lo	U	2	1	15
71	1	LoU2_1	587	logical	Lo	U	2	1	16
71	3	LoT2_3	586	logical	Lo	T	2	1	17
71	2	LoT1_2	638	logical	Lo	T	1	1	18
72	3	LoT1_3	1094	logical	Lo	T	1	1	1
72	2	LoU1_2	1637	logical	Lo	U	1	1	2
72	2	LoT1_2	726	logical	Lo	T	1	1	3
72	2	LoT2_2	1927	logical	Lo	T	2	1	4
72	1	LoU2_1	1682	logical	Lo	U	2	1	5
72	2	LoU2_2	1302	logical	Lo	U	2	1	6
72	1	LoT2_1	974	logical	Lo	T	2	1	7
72	1	LoF2_1	659	logical	Lo	F	2	0	8
72	1	LoF1_1	971	logical	Lo	F	1	0	9
72	2	LoF2_2	771	logical	Lo	F	2	0	10
72	3	LoF2_3	701	logical	Lo	F	2	0	11
72	2	LoF1_2	1041	logical	Lo	F	1	0	12
72	3	LoU2_3	759	logical	Lo	U	2	1	13
72	3	LoU1_3	873	logical	Lo	U	1	1	14
72	1	LoU1_1	591	logical	Lo	U	1	1	15
72	1	LoT1_1	670	logical	Lo	T	1	1	16
72	3	LoF1_3	759	logical	Lo	F	1	0	17
72	3	LoT2_3	1098	logical	Lo	T	2	1	18
73	3	LoT2_3	1222	logical	Lo	T	2	1	1
73	1	LoT1_1	790	logical	Lo	T	1	1	2
73	2	LoF2_2	695	logical	Lo	F	2	0	3
73	2	LoU1_2	1406	logical	Lo	U	1	1	4
73	2	LoF1_2	1663	logical	Lo	F	1	0	5
73	3	LoU2_3	1623	logical	Lo	U	2	1	6
73	1	LoF2_1	701	logical	Lo	F	2	0	7
73	3	LoU1_3	774	logical	Lo	U	1	1	8
73	3	LoF1_3	550	logical	Lo	F	1	0	9
73	2	LoT1_2	1230	logical	Lo	T	1	1	10
73	3	LoF2_3	1574	logical	Lo	F	2	0	11
73	2	LoT2_2	2173	logical	Lo	T	2	1	12
73	1	LoU2_1	990	logical	Lo	U	2	1	13
73	2	LoU2_2	1605	logical	Lo	U	2	1	14
73	1	LoF1_1	734	logical	Lo	F	1	0	15
73	1	LoT2_1	806	logical	Lo	T	2	1	16
73	3	LoT1_3	1206	logical	Lo	T	1	1	17
73	1	LoU1_1	877	logical	Lo	U	1	1	18
74	3	LoU2_3	1617	logical	Lo	U	2	1	1
74	3	LoU1_3	1917	logical	Lo	U	1	1	2
74	2	LoT1_2	766	logical	Lo	T	1	1	3
74	3	LoF1_3	1355	logical	Lo	F	1	0	4
74	2	LoT2_2	1061	logical	Lo	T	2	1	5
74	1	LoF2_1	936	logical	Lo	F	2	0	6
74	1	LoT2_1	907	logical	Lo	T	2	1	7
74	1	LoF1_1	930	logical	Lo	F	1	0	8
74	2	LoF1_2	832	logical	Lo	F	1	0	9
74	2	LoF2_2	857	logical	Lo	F	2	0	10
74	2	LoU2_2	684	logical	Lo	U	2	1	11
74	1	LoT1_1	1138	logical	Lo	T	1	1	12
74	3	LoT2_3	622	logical	Lo	T	2	1	13
74	3	LoF2_3	630	logical	Lo	F	2	0	14
74	2	LoU1_2	601	logical	Lo	U	1	1	15
74	3	LoT1_3	733	logical	Lo	T	1	1	16
74	1	LoU2_1	624	logical	Lo	U	2	1	17
74	1	LoU1_1	627	logical	Lo	U	1	1	18
75	2	LoF1_2	1270	logical	Lo	F	1	0	1
75	2	LoF2_2	1678	logical	Lo	F	2	0	2
75	1	LoU1_1	898	logical	Lo	U	1	1	3
75	3	LoF1_3	1014	logical	Lo	F	1	0	4
75	1	LoF2_1	1364	logical	Lo	F	2	0	5
75	3	LoU2_3	1081	logical	Lo	U	2	1	6
75	3	LoT1_3	970	logical	Lo	T	1	1	7
75	2	LoT1_2	557	logical	Lo	T	1	1	8
75	1	LoF1_1	1210	logical	Lo	F	1	0	9
75	3	LoT2_3	1057	logical	Lo	T	2	1	10
75	2	LoT2_2	548	logical	Lo	T	2	1	11
75	1	LoT1_1	650	logical	Lo	T	1	1	12
75	1	LoT2_1	1011	logical	Lo	T	2	1	13
75	1	LoU2_1	920	logical	Lo	U	2	1	14
75	2	LoU1_2	600	logical	Lo	U	1	1	15
75	2	LoU2_2	620	logical	Lo	U	2	1	16
75	3	LoF2_3	876	logical	Lo	F	2	0	17
75	3	LoU1_3	1018	logical	Lo	U	1	1	18
76	1	LoF2_1	866	logical	Lo	F	2	0	1
76	3	LoF1_3	765	logical	Lo	F	1	0	2
76	1	LoU1_1	599	logical	Lo	U	1	1	3
76	2	LoU2_2	773	logical	Lo	U	2	1	4
76	2	LoT2_2	769	logical	Lo	T	2	1	5
76	1	LoF1_1	574	logical	Lo	F	1	0	6
76	2	LoF1_2	600	logical	Lo	F	1	0	7
76	1	LoU2_1	548	logical	Lo	U	2	1	8
76	2	LoU1_2	549	logical	Lo	U	1	1	9
76	3	LoT1_3	607	logical	Lo	T	1	1	10
76	1	LoT1_1	462	logical	Lo	T	1	1	11
76	2	LoT1_2	436	logical	Lo	T	1	1	12
76	3	LoT2_3	711	logical	Lo	T	2	1	13
76	2	LoF2_2	556	logical	Lo	F	2	0	14
76	3	LoU2_3	545	logical	Lo	U	2	1	15
76	3	LoF2_3	795	logical	Lo	F	2	1	16
76	3	LoU1_3	842	logical	Lo	U	1	1	17
76	1	LoT2_1	1537	logical	Lo	T	2	1	18
77	3	LoF1_3	2269	logical	Lo	F	1	0	1
77	3	LoT2_3	2088	logical	Lo	T	2	1	2
77	1	LoF1_1	1319	logical	Lo	F	1	0	3
77	2	LoF2_2	1785	logical	Lo	F	2	0	4
77	1	LoT1_1	1567	logical	Lo	T	1	1	5
77	2	LoF1_2	1582	logical	Lo	F	1	0	6
77	3	LoF2_3	1373	logical	Lo	F	2	0	7
77	2	LoU2_2	1523	logical	Lo	U	2	1	8
77	1	LoT2_1	1131	logical	Lo	T	2	1	9
77	3	LoU2_3	1001	logical	Lo	U	2	1	10
77	2	LoT2_2	1029	logical	Lo	T	2	1	11
77	1	LoU1_1	1002	logical	Lo	U	1	1	12
77	2	LoU1_2	1047	logical	Lo	U	1	1	13
77	3	LoT1_3	1042	logical	Lo	T	1	1	14
77	1	LoU2_1	848	logical	Lo	U	2	1	15
77	1	LoF2_1	1519	logical	Lo	F	2	0	16
77	2	LoT1_2	813	logical	Lo	T	1	1	17
77	3	LoU1_3	764	logical	Lo	U	1	1	18
78	2	LoT1_2	853	logical	Lo	T	1	1	1
78	2	LoF2_2	1174	logical	Lo	F	2	0	2
78	3	LoU2_3	1006	logical	Lo	U	2	1	3
78	2	LoU1_2	2935	logical	Lo	U	1	1	4
78	3	LoT2_3	878	logical	Lo	T	2	1	5
78	3	LoF2_3	1189	logical	Lo	F	2	0	6
78	2	LoF1_2	1421	logical	Lo	F	1	0	7
78	1	LoT1_1	702	logical	Lo	T	1	1	8
78	1	LoU2_1	687	logical	Lo	U	2	1	9
78	1	LoF2_1	1207	logical	Lo	F	2	0	10
78	1	LoT2_1	679	logical	Lo	T	2	1	11
78	1	LoF1_1	1231	logical	Lo	F	1	0	12
78	3	LoT1_3	623	logical	Lo	T	1	1	13
78	3	LoU1_3	22464	logical	Lo	U	1	1	14
78	2	LoT2_2	733	logical	Lo	T	2	1	15
78	2	LoU2_2	918	logical	Lo	U	2	1	16
78	1	LoU1_1	1103	logical	Lo	U	1	1	17
78	3	LoF1_3	1038	logical	Lo	F	1	0	18
79	3	LoT2_3	977	logical	Lo	T	2	1	1
79	2	LoU2_2	975	logical	Lo	U	2	1	2
79	3	LoF1_3	1380	logical	Lo	F	1	0	3
79	2	LoT2_2	742	logical	Lo	T	2	1	4
79	2	LoF1_2	1349	logical	Lo	F	1	0	5
79	1	LoT2_1	722	logical	Lo	T	2	1	6
79	2	LoU1_2	759	logical	Lo	U	1	1	7
79	1	LoU2_1	928	logical	Lo	U	2	1	8
79	3	LoU2_3	499	logical	Lo	U	2	1	9
79	1	LoF2_1	772	logical	Lo	F	2	0	10
79	3	LoF2_3	1526	logical	Lo	F	2	0	11
79	1	LoF1_1	853	logical	Lo	F	1	0	12
79	1	LoU1_1	1639	logical	Lo	U	1	1	13
79	3	LoT1_3	791	logical	Lo	T	1	1	14
79	1	LoT1_1	758	logical	Lo	T	1	1	15
79	2	LoT1_2	688	logical	Lo	T	1	1	16
79	3	LoU1_3	980	logical	Lo	U	1	1	17
79	2	LoF2_2	1320	logical	Lo	F	2	0	18
80	3	LoT2_3	2577	logical	Lo	T	2	1	1
80	2	LoU1_2	2015	logical	Lo	U	1	1	2
80	3	LoF2_3	943	logical	Lo	F	2	0	3
80	2	LoF2_2	813	logical	Lo	F	2	0	4
80	2	LoT1_2	708	logical	Lo	T	1	1	5
80	3	LoT1_3	750	logical	Lo	T	1	1	6
80	2	LoT2_2	502	logical	Lo	T	2	1	7
80	2	LoU2_2	652	logical	Lo	U	2	1	8
80	3	LoU1_3	534	logical	Lo	U	1	1	9
80	1	LoF2_1	621	logical	Lo	F	2	0	10
80	3	LoF1_3	1360	logical	Lo	F	1	0	11
80	1	LoF1_1	806	logical	Lo	F	1	0	12
80	1	LoU2_1	1269	logical	Lo	U	2	0	13
80	3	LoU2_3	604	logical	Lo	U	2	1	14
80	1	LoT2_1	573	logical	Lo	T	2	1	15
80	2	LoF1_2	598	logical	Lo	F	1	0	16
80	1	LoT1_1	686	logical	Lo	T	1	1	17
80	1	LoU1_1	580	logical	Lo	U	1	1	18
81	3	LoU2_3	1638	logical	Lo	U	2	1	1
81	1	LoT1_1	835	logical	Lo	T	1	1	2
81	2	LoF1_2	836	logical	Lo	F	1	0	3
81	2	LoT1_2	634	logical	Lo	T	1	1	4
81	2	LoF2_2	754	logical	Lo	F	2	0	5
81	3	LoF2_3	667	logical	Lo	F	2	0	6
81	2	LoT2_2	629	logical	Lo	T	2	1	7
81	3	LoF1_3	626	logical	Lo	F	1	0	8
81	3	LoT2_3	736	logical	Lo	T	2	1	9
81	2	LoU2_2	673	logical	Lo	U	2	1	10
81	1	LoU1_1	668	logical	Lo	U	1	1	11
81	1	LoU2_1	599	logical	Lo	U	2	1	12
81	2	LoU1_2	599	logical	Lo	U	1	1	13
81	1	LoF1_1	576	logical	Lo	F	1	0	14
81	1	LoF2_1	501	logical	Lo	F	2	0	15
81	3	LoU1_3	531	logical	Lo	U	1	1	16
81	3	LoT1_3	531	logical	Lo	T	1	1	17
81	1	LoT2_1	505	logical	Lo	T	2	1	18
82	2	LoT1_2	1504	logical	Lo	T	1	1	1
82	3	LoU1_3	4169	logical	Lo	U	1	1	2
82	2	LoU2_2	2705	logical	Lo	U	2	1	3
82	1	LoU2_1	1613	logical	Lo	U	2	1	4
82	3	LoU2_3	1373	logical	Lo	U	2	1	5
82	2	LoF2_2	3621	logical	Lo	F	2	0	6
82	1	LoT2_1	1400	logical	Lo	T	2	1	7
82	2	LoT2_2	1334	logical	Lo	T	2	1	8
82	1	LoF1_1	2167	logical	Lo	F	1	0	9
82	1	LoU1_1	2660	logical	Lo	U	1	1	10
82	2	LoU1_2	968	logical	Lo	U	1	1	11
82	3	LoF1_3	1530	logical	Lo	F	1	0	12
82	1	LoF2_1	1157	logical	Lo	F	2	0	13
82	2	LoF1_2	1004	logical	Lo	F	1	0	14
82	3	LoT2_3	1237	logical	Lo	T	2	1	15
82	3	LoT1_3	1160	logical	Lo	T	1	1	16
82	3	LoF2_3	1554	logical	Lo	F	2	0	17
82	1	LoT1_1	1130	logical	Lo	T	1	1	18
83	3	LoF1_3	1279	logical	Lo	F	1	0	1
83	2	LoU2_2	1505	logical	Lo	U	2	1	2
83	2	LoT2_2	908	logical	Lo	T	2	1	3
83	1	LoF2_1	667	logical	Lo	F	2	0	4
83	2	LoF2_2	666	logical	Lo	F	2	0	5
83	1	LoT1_1	1149	logical	Lo	T	1	1	6
83	2	LoF1_2	1351	logical	Lo	F	1	0	7
83	1	LoT2_1	857	logical	Lo	T	2	1	8
83	1	LoU1_1	2164	logical	Lo	U	1	1	9
83	1	LoU2_1	777	logical	Lo	U	2	1	10
83	1	LoF1_1	714	logical	Lo	F	1	0	11
83	3	LoU2_3	945	logical	Lo	U	2	1	12
83	2	LoT1_2	1166	logical	Lo	T	1	1	13
83	3	LoT1_3	811	logical	Lo	T	1	1	14
83	3	LoF2_3	948	logical	Lo	F	2	0	15
83	3	LoT2_3	682	logical	Lo	T	2	1	16
83	3	LoU1_3	845	logical	Lo	U	1	1	17
83	2	LoU1_2	834	logical	Lo	U	1	1	18
84	3	LoU2_3	3005	logical	Lo	U	2	1	1
84	2	LoT2_2	2701	logical	Lo	T	2	0	2
84	2	LoF1_2	2484	logical	Lo	F	1	0	3
84	1	LoF1_1	2404	logical	Lo	F	1	1	4
84	2	LoF2_2	2685	logical	Lo	F	2	0	5
84	2	LoU2_2	1831	logical	Lo	U	2	1	6
84	3	LoF2_3	883	logical	Lo	F	2	0	7
84	1	LoF2_1	1069	logical	Lo	F	2	1	8
84	2	LoU1_2	1958	logical	Lo	U	1	1	9
84	1	LoT1_1	1597	logical	Lo	T	1	1	10
84	3	LoU1_3	1677	logical	Lo	U	1	1	11
84	1	LoU1_1	972	logical	Lo	U	1	1	12
84	1	LoU2_1	1133	logical	Lo	U	2	1	13
84	3	LoT1_3	964	logical	Lo	T	1	1	14
84	1	LoT2_1	1211	logical	Lo	T	2	1	15
84	3	LoT2_3	1357	logical	Lo	T	2	1	16
84	2	LoT1_2	1197	logical	Lo	T	1	1	17
84	3	LoF1_3	1163	logical	Lo	F	1	0	18
85	2	LoT1_2	1200	logical	Lo	T	1	1	1
85	2	LoF1_2	979	logical	Lo	F	1	0	2
85	2	LoU2_2	11816	logical	Lo	U	2	0	3
85	2	LoU1_2	3521	logical	Lo	U	1	1	4
85	1	LoF2_1	2567	logical	Lo	F	2	0	5
85	1	LoT2_1	2012	logical	Lo	T	2	1	6
85	1	LoF1_1	1171	logical	Lo	F	1	0	7
85	1	LoU1_1	2835	logical	Lo	U	1	1	8
85	2	LoT2_2	1374	logical	Lo	T	2	1	9
85	3	LoU2_3	2064	logical	Lo	U	2	1	10
85	3	LoT2_3	1041	logical	Lo	T	2	1	11
85	1	LoT1_1	946	logical	Lo	T	1	1	12
85	3	LoF2_3	1021	logical	Lo	F	2	0	13
85	2	LoF2_2	1082	logical	Lo	F	2	0	14
85	3	LoT1_3	1044	logical	Lo	T	1	1	15
85	1	LoU2_1	1298	logical	Lo	U	2	1	16
85	3	LoF1_3	1167	logical	Lo	F	1	0	17
85	3	LoU1_3	1065	logical	Lo	U	1	1	18
86	2	LoU2_2	5323	logical	Lo	U	2	1	1
86	2	LoF2_2	2180	logical	Lo	F	2	0	2
86	3	LoF2_3	1196	logical	Lo	F	2	0	3
86	1	LoT2_1	3094	logical	Lo	T	2	1	4
86	3	LoT1_3	1253	logical	Lo	T	1	1	5
86	1	LoF2_1	1757	logical	Lo	F	2	0	6
86	1	LoT1_1	1215	logical	Lo	T	1	1	7
86	3	LoT2_3	3014	logical	Lo	T	2	1	8
86	1	LoF1_1	1534	logical	Lo	F	1	0	9
86	2	LoT1_2	1254	logical	Lo	T	1	1	10
86	1	LoU2_1	2348	logical	Lo	U	2	1	11
86	3	LoF1_3	1428	logical	Lo	F	1	0	12
86	2	LoT2_2	3516	logical	Lo	T	2	1	13
86	3	LoU1_3	3430	logical	Lo	U	1	1	14
86	1	LoU1_1	1036	logical	Lo	U	1	1	15
86	2	LoU1_2	980	logical	Lo	U	1	1	16
86	2	LoF1_2	3494	logical	Lo	F	1	0	17
86	3	LoU2_3	2501	logical	Lo	U	2	1	18
87	2	LoT2_2	1164	logical	Lo	T	2	1	1
87	3	LoU1_3	1123	logical	Lo	U	1	1	2
87	1	LoT1_1	561	logical	Lo	T	1	1	3
87	3	LoF1_3	854	logical	Lo	F	1	0	4
87	2	LoU1_2	786	logical	Lo	U	1	1	5
87	1	LoF2_1	1012	logical	Lo	F	2	0	6
87	1	LoU1_1	581	logical	Lo	U	1	1	7
87	3	LoT1_3	582	logical	Lo	T	1	1	8
87	3	LoU2_3	873	logical	Lo	U	2	1	9
87	3	LoF2_3	768	logical	Lo	F	2	0	10
87	2	LoU2_2	579	logical	Lo	U	2	1	11
87	3	LoT2_3	654	logical	Lo	T	2	1	12
87	2	LoF2_2	654	logical	Lo	F	2	0	13
87	1	LoU2_1	728	logical	Lo	U	2	1	14
87	1	LoF1_1	1260	logical	Lo	F	1	0	15
87	1	LoT2_1	520	logical	Lo	T	2	1	16
87	2	LoT1_2	637	logical	Lo	T	1	1	17
87	2	LoF1_2	655	logical	Lo	F	1	0	18
88	3	LoU2_3	1414	logical	Lo	U	2	1	1
88	2	LoU2_2	1029	logical	Lo	U	2	1	2
88	2	LoT1_2	1972	logical	Lo	T	1	1	3
88	1	LoU1_1	1412	logical	Lo	U	1	1	4
88	1	LoU2_1	929	logical	Lo	U	2	1	5
88	3	LoU1_3	818	logical	Lo	U	1	1	6
88	2	LoF2_2	1112	logical	Lo	F	2	0	7
88	2	LoF1_2	1463	logical	Lo	F	1	0	8
88	2	LoU1_2	2051	logical	Lo	U	1	1	9
88	3	LoT2_3	1028	logical	Lo	T	2	1	10
88	3	LoT1_3	1137	logical	Lo	T	1	1	11
88	1	LoT1_1	925	logical	Lo	T	1	1	12
88	2	LoT2_2	938	logical	Lo	T	2	1	13
88	3	LoF1_3	925	logical	Lo	F	1	0	14
88	1	LoF2_1	1095	logical	Lo	F	2	0	15
88	1	LoF1_1	962	logical	Lo	F	1	0	16
88	3	LoF2_3	1151	logical	Lo	F	2	0	17
88	1	LoT2_1	1209	logical	Lo	T	2	1	18
89	1	MiT2_1	1032	logical	Mi	T	2	1	1
89	3	MiU1_3	964	logical	Mi	U	1	1	2
89	1	MiF1_1	1440	logical	Mi	F	1	0	3
89	1	MiU2_1	732	logical	Mi	U	2	1	4
89	2	MiT1_2	874	logical	Mi	T	1	1	5
89	2	MiU1_2	652	logical	Mi	U	1	1	6
89	3	MiT1_3	668	logical	Mi	T	1	1	7
89	3	MiT2_3	852	logical	Mi	T	2	1	8
89	3	MiF1_3	724	logical	Mi	F	1	0	9
89	2	MiF2_2	696	logical	Mi	F	2	0	10
89	2	MiU2_2	690	logical	Mi	U	2	1	11
89	1	MiU1_1	668	logical	Mi	U	1	1	12
89	1	MiT1_1	868	logical	Mi	T	1	1	13
89	3	MiF2_3	692	logical	Mi	F	2	0	14
89	2	MiF1_2	638	logical	Mi	F	1	0	15
89	2	MiT2_2	656	logical	Mi	T	2	1	16
89	3	MiU2_3	640	logical	Mi	U	2	1	17
89	1	MiF2_1	652	logical	Mi	F	2	0	18
90	2	MiF1_2	703	logical	Mi	F	1	0	1
90	3	MiF2_3	557	logical	Mi	F	2	0	2
90	1	MiU1_1	653	logical	Mi	U	1	1	3
90	2	MiU2_2	734	logical	Mi	U	2	1	4
90	3	MiU1_3	543	logical	Mi	U	1	1	5
90	1	MiT2_1	460	logical	Mi	T	2	0	6
90	1	MiF1_1	348	logical	Mi	F	1	1	7
90	1	MiF2_1	174	logical	Mi	F	2	0	8
90	2	MiT1_2	189	logical	Mi	T	1	1	9
90	1	MiU2_1	333	logical	Mi	U	2	1	10
90	2	MiT2_2	670	logical	Mi	T	2	1	11
90	2	MiU1_2	588	logical	Mi	U	1	1	12
90	3	MiF1_3	972	logical	Mi	F	1	0	13
90	3	MiT2_3	1264	logical	Mi	T	2	0	14
90	2	MiF2_2	845	logical	Mi	F	2	0	15
90	3	MiU2_3	716	logical	Mi	U	2	1	16
90	1	MiT1_1	701	logical	Mi	T	1	1	17
90	3	MiT1_3	687	logical	Mi	T	1	1	18
91	1	MiU2_1	1180	logical	Mi	U	2	1	1
91	2	MiF1_2	691	logical	Mi	F	1	0	2
91	3	MiU2_3	698	logical	Mi	U	2	1	3
91	1	MiF1_1	602	logical	Mi	F	1	0	4
91	3	MiF1_3	658	logical	Mi	F	1	1	5
91	3	MiU1_3	1204	logical	Mi	U	1	1	6
91	2	MiT2_2	1283	logical	Mi	T	2	0	7
91	1	MiU1_1	932	logical	Mi	U	1	1	8
91	2	MiT1_2	673	logical	Mi	T	1	1	9
91	2	MiU1_2	483	logical	Mi	U	1	1	10
91	1	MiF2_1	907	logical	Mi	F	2	0	11
91	2	MiF2_2	629	logical	Mi	F	2	0	12
91	3	MiF2_3	571	logical	Mi	F	2	0	13
91	1	MiT2_1	540	logical	Mi	T	2	0	14
91	3	MiT2_3	642	logical	Mi	T	2	1	15
91	2	MiU2_2	538	logical	Mi	U	2	1	16
91	1	MiT1_1	666	logical	Mi	T	1	1	17
91	3	MiT1_3	521	logical	Mi	T	1	1	18
92	3	MiF1_3	1192	logical	Mi	F	1	0	1
92	3	MiU1_3	626	logical	Mi	U	1	1	2
92	3	MiF2_3	792	logical	Mi	F	2	0	3
92	2	MiU2_2	588	logical	Mi	U	2	1	4
92	2	MiT2_2	576	logical	Mi	T	2	1	5
92	3	MiT2_3	552	logical	Mi	T	2	1	6
92	2	MiF2_2	602	logical	Mi	F	2	0	7
92	2	MiU1_2	518	logical	Mi	U	1	1	8
92	1	MiF2_1	786	logical	Mi	F	2	0	9
92	1	MiU2_1	664	logical	Mi	U	2	1	10
92	1	MiT1_1	578	logical	Mi	T	1	1	11
92	1	MiU1_1	552	logical	Mi	U	1	1	12
92	1	MiT2_1	874	logical	Mi	T	2	1	13
92	2	MiF1_2	658	logical	Mi	F	1	0	14
92	2	MiT1_2	594	logical	Mi	T	1	1	15
92	3	MiT1_3	468	logical	Mi	T	1	1	16
92	3	MiU2_3	512	logical	Mi	U	2	1	17
92	1	MiF1_1	706	logical	Mi	F	1	0	18
93	2	MiT1_2	1892	logical	Mi	T	1	1	1
93	1	MiU1_1	1122	logical	Mi	U	1	1	2
93	2	MiU2_2	970	logical	Mi	U	2	1	3
93	3	MiT1_3	1080	logical	Mi	T	1	1	4
93	3	MiU2_3	600	logical	Mi	U	2	1	5
93	3	MiF1_3	1354	logical	Mi	F	1	0	6
93	2	MiU1_2	616	logical	Mi	U	1	1	7
93	3	MiF2_3	874	logical	Mi	F	2	0	8
93	3	MiU1_3	566	logical	Mi	U	1	1	9
93	1	MiF2_1	1468	logical	Mi	F	2	0	10
93	2	MiF2_2	866	logical	Mi	F	2	0	11
93	3	MiT2_3	828	logical	Mi	T	2	1	12
93	1	MiU2_1	700	logical	Mi	U	2	1	13
93	1	MiF1_1	922	logical	Mi	F	1	0	14
93	1	MiT2_1	810	logical	Mi	T	2	1	15
93	2	MiF1_2	692	logical	Mi	F	1	0	16
93	2	MiT2_2	612	logical	Mi	T	2	1	17
93	1	MiT1_1	794	logical	Mi	T	1	1	18
94	2	MiF2_2	2002	logical	Mi	F	2	0	1
94	2	MiT1_2	1378	logical	Mi	T	1	1	2
94	3	MiF2_3	860	logical	Mi	F	2	0	3
94	1	MiF1_1	914	logical	Mi	F	1	0	4
94	1	MiF2_1	961	logical	Mi	F	2	0	5
94	1	MiT2_1	1929	logical	Mi	T	2	1	6
94	3	MiU1_3	1026	logical	Mi	U	1	1	7
94	3	MiU2_3	1520	logical	Mi	U	2	1	8
94	2	MiU2_2	770	logical	Mi	U	2	1	9
94	2	MiU1_2	744	logical	Mi	U	1	1	10
94	3	MiT2_3	892	logical	Mi	T	2	1	11
94	2	MiF1_2	1219	logical	Mi	F	1	0	12
94	2	MiT2_2	1223	logical	Mi	T	2	1	13
94	3	MiF1_3	748	logical	Mi	F	1	0	14
94	1	MiU1_1	878	logical	Mi	U	1	1	15
94	1	MiU2_1	968	logical	Mi	U	2	1	16
94	3	MiT1_3	1166	logical	Mi	T	1	1	17
94	1	MiT1_1	1157	logical	Mi	T	1	1	18
95	3	MiT2_3	1329	logical	Mi	T	2	1	1
95	2	MiT2_2	541	logical	Mi	T	2	1	2
95	3	MiT1_3	574	logical	Mi	T	1	1	3
95	3	MiU1_3	629	logical	Mi	U	1	1	4
95	1	MiT2_1	641	logical	Mi	T	2	1	5
95	2	MiT1_2	447	logical	Mi	T	1	1	6
95	3	MiF2_3	831	logical	Mi	F	2	0	7
95	2	MiU1_2	582	logical	Mi	U	1	1	8
95	1	MiU2_1	464	logical	Mi	U	2	1	9
95	2	MiF2_2	709	logical	Mi	F	2	0	10
95	1	MiF1_1	795	logical	Mi	F	1	0	11
95	1	MiF2_1	768	logical	Mi	F	2	0	12
95	2	MiU2_2	507	logical	Mi	U	2	1	13
95	1	MiT1_1	477	logical	Mi	T	1	1	14
95	3	MiF1_3	563	logical	Mi	F	1	0	15
95	3	MiU2_3	482	logical	Mi	U	2	1	16
95	1	MiU1_1	427	logical	Mi	U	1	1	17
95	2	MiF1_2	582	logical	Mi	F	1	0	18
96	2	MiF2_2	1488	logical	Mi	F	2	0	1
96	1	MiU2_1	1037	logical	Mi	U	2	1	2
96	1	MiF1_1	902	logical	Mi	F	1	0	3
96	1	MiT2_1	993	logical	Mi	T	2	1	4
96	3	MiT1_3	1237	logical	Mi	T	1	1	5
96	1	MiT1_1	847	logical	Mi	T	1	1	6
96	1	MiF2_1	590	logical	Mi	F	2	0	7
96	2	MiF1_2	681	logical	Mi	F	1	0	8
96	3	MiT2_3	896	logical	Mi	T	2	1	9
96	2	MiT2_2	560	logical	Mi	T	2	1	10
96	3	MiU2_3	722	logical	Mi	U	2	1	11
96	2	MiT1_2	739	logical	Mi	T	1	1	12
96	3	MiF1_3	625	logical	Mi	F	1	0	13
96	1	MiU1_1	586	logical	Mi	U	1	1	14
96	2	MiU1_2	587	logical	Mi	U	1	1	15
96	3	MiU1_3	460	logical	Mi	U	1	1	16
96	2	MiU2_2	639	logical	Mi	U	2	1	17
96	3	MiF2_3	643	logical	Mi	F	2	0	18
97	2	MiT2_2	1253	logical	Mi	T	2	1	1
97	3	MiF1_3	986	logical	Mi	F	1	0	2
97	2	MiT1_2	553	logical	Mi	T	1	1	3
97	1	MiT2_1	986	logical	Mi	T	2	1	4
97	1	MiU2_1	538	logical	Mi	U	2	1	5
97	3	MiU1_3	640	logical	Mi	U	1	1	6
97	1	MiF1_1	1733	logical	Mi	F	1	0	7
97	1	MiT1_1	626	logical	Mi	T	1	1	8
97	3	MiU2_3	898	logical	Mi	U	2	1	9
97	3	MiT2_3	709	logical	Mi	T	2	1	10
97	3	MiT1_3	589	logical	Mi	T	1	1	11
97	2	MiU2_2	700	logical	Mi	U	2	1	12
97	2	MiF2_2	1715	logical	Mi	F	2	0	13
97	3	MiF2_3	839	logical	Mi	F	2	0	14
97	1	MiF2_1	756	logical	Mi	F	2	0	15
97	2	MiF1_2	860	logical	Mi	F	1	0	16
97	2	MiU1_2	547	logical	Mi	U	1	1	17
97	1	MiU1_1	512	logical	Mi	U	1	1	18
98	3	MiT1_3	1110	logical	Mi	T	1	1	1
98	2	MiU2_2	728	logical	Mi	U	2	1	2
98	1	MiT2_1	950	logical	Mi	T	2	1	3
98	2	MiU1_2	1482	logical	Mi	U	1	1	4
98	1	MiT1_1	587	logical	Mi	T	1	1	5
98	3	MiF2_3	706	logical	Mi	F	2	0	6
98	1	MiU2_1	633	logical	Mi	U	2	1	7
98	1	MiF1_1	1253	logical	Mi	F	1	0	8
98	2	MiT1_2	577	logical	Mi	T	1	1	9
98	1	MiU1_1	678	logical	Mi	U	1	1	10
98	2	MiF2_2	804	logical	Mi	F	2	0	11
98	3	MiU2_3	701	logical	Mi	U	2	1	12
98	1	MiF2_1	586	logical	Mi	F	2	0	13
98	2	MiF1_2	610	logical	Mi	F	1	0	14
98	3	MiU1_3	575	logical	Mi	U	1	1	15
98	3	MiF1_3	659	logical	Mi	F	1	0	16
98	3	MiT2_3	658	logical	Mi	T	2	1	17
98	2	MiT2_2	529	logical	Mi	T	2	1	18
99	1	MiU1_1	2063	logical	Mi	U	1	1	1
99	2	MiU2_2	864	logical	Mi	U	2	1	2
99	3	MiU1_3	750	logical	Mi	U	1	1	3
99	1	MiU2_1	807	logical	Mi	U	2	1	4
99	3	MiU2_3	549	logical	Mi	U	2	1	5
99	2	MiF2_2	749	logical	Mi	F	2	0	6
99	3	MiF2_3	548	logical	Mi	F	2	0	7
99	2	MiF1_2	591	logical	Mi	F	1	0	8
99	2	MiU1_2	806	logical	Mi	U	1	1	9
99	1	MiF2_1	832	logical	Mi	F	2	0	10
99	2	MiT2_2	6140	logical	Mi	T	2	1	11
99	1	MiF1_1	665	logical	Mi	F	1	0	12
99	3	MiF1_3	668	logical	Mi	F	1	0	13
99	1	MiT2_1	671	logical	Mi	T	2	1	14
99	3	MiT1_3	844	logical	Mi	T	1	1	15
99	3	MiT2_3	832	logical	Mi	T	2	1	16
99	2	MiT1_2	564	logical	Mi	T	1	1	17
99	1	MiT1_1	519	logical	Mi	T	1	1	18
100	1	MiF1_1	1928	logical	Mi	F	1	0	1
100	2	MiF1_2	1844	logical	Mi	F	1	0	2
100	3	MiU1_3	786	logical	Mi	U	1	1	3
100	3	MiF2_3	1252	logical	Mi	F	2	0	4
100	2	MiF2_2	1036	logical	Mi	F	2	0	5
100	3	MiU2_3	930	logical	Mi	U	2	1	6
100	2	MiU2_2	620	logical	Mi	U	2	1	7
100	3	MiT1_3	1384	logical	Mi	T	1	0	8
100	1	MiT2_1	976	logical	Mi	T	2	1	9
100	2	MiU1_2	540	logical	Mi	U	1	1	10
100	2	MiT2_2	1650	logical	Mi	T	2	1	11
100	2	MiT1_2	1112	logical	Mi	T	1	1	12
100	1	MiU1_1	438	logical	Mi	U	1	1	13
100	1	MiF2_1	836	logical	Mi	F	2	0	14
100	3	MiT2_3	890	logical	Mi	T	2	1	15
100	3	MiF1_3	902	logical	Mi	F	1	0	16
100	1	MiT1_1	862	logical	Mi	T	1	1	17
100	1	MiU2_1	654	logical	Mi	U	2	1	18
101	1	MiU1_1	1490	logical	Mi	U	1	1	1
101	1	MiF2_1	1824	logical	Mi	F	2	0	2
101	1	MiT2_1	1048	logical	Mi	T	2	1	3
101	2	MiT2_2	809	logical	Mi	T	2	1	4
101	3	MiT1_3	930	logical	Mi	T	1	1	5
101	3	MiF2_3	739	logical	Mi	F	2	0	6
101	3	MiU2_3	1247	logical	Mi	U	2	1	7
101	2	MiU2_2	939	logical	Mi	U	2	1	8
101	1	MiU2_1	659	logical	Mi	U	2	1	9
101	3	MiF1_3	1041	logical	Mi	F	1	0	10
101	2	MiF1_2	795	logical	Mi	F	1	0	11
101	1	MiT1_1	816	logical	Mi	T	1	1	12
101	2	MiT1_2	719	logical	Mi	T	1	1	13
101	2	MiF2_2	667	logical	Mi	F	2	0	14
101	3	MiT2_3	1204	logical	Mi	T	2	1	15
101	2	MiU1_2	888	logical	Mi	U	1	1	16
101	3	MiU1_3	701	logical	Mi	U	1	1	17
101	1	MiF1_1	842	logical	Mi	F	1	0	18
102	1	MiU1_1	1885	logical	Mi	U	1	1	1
102	3	MiT1_3	2093	logical	Mi	T	1	1	2
102	3	MiU2_3	1918	logical	Mi	U	2	1	3
102	1	MiU2_1	1351	logical	Mi	U	2	1	4
102	1	MiT1_1	1630	logical	Mi	T	1	1	5
102	2	MiT1_2	1733	logical	Mi	T	1	1	6
102	2	MiF1_2	1862	logical	Mi	F	1	0	7
102	3	MiT2_3	1742	logical	Mi	T	2	1	8
102	2	MiU1_2	1608	logical	Mi	U	1	1	9
102	1	MiT2_1	1645	logical	Mi	T	2	1	10
102	1	MiF1_1	1766	logical	Mi	F	1	0	11
102	3	MiU1_3	1518	logical	Mi	U	1	1	12
102	2	MiU2_2	1477	logical	Mi	U	2	1	13
102	2	MiF2_2	2133	logical	Mi	F	2	0	14
102	1	MiF2_1	1255	logical	Mi	F	2	0	15
102	3	MiF2_3	1582	logical	Mi	F	2	0	16
102	3	MiF1_3	1230	logical	Mi	F	1	0	17
102	2	MiT2_2	1694	logical	Mi	T	2	1	18
103	1	MiT2_1	2288	logical	Mi	T	2	1	1
103	2	MiF2_2	2106	logical	Mi	F	2	0	2
103	1	MiF2_1	2175	logical	Mi	F	2	0	3
103	1	MiF1_1	1540	logical	Mi	F	1	0	4
103	1	MiU1_1	1208	logical	Mi	U	1	1	5
103	3	MiT2_3	1661	logical	Mi	T	2	1	6
103	3	MiF2_3	1663	logical	Mi	F	2	0	7
103	1	MiU2_1	1235	logical	Mi	U	2	1	8
103	2	MiT1_2	1185	logical	Mi	T	1	1	9
103	3	MiT1_3	1620	logical	Mi	T	1	1	10
103	2	MiT2_2	1343	logical	Mi	T	2	1	11
103	1	MiT1_1	1126	logical	Mi	T	1	1	12
103	3	MiU2_3	1369	logical	Mi	U	2	1	13
103	2	MiU2_2	1532	logical	Mi	U	2	1	14
103	3	MiF1_3	1755	logical	Mi	F	1	0	15
103	3	MiU1_3	1503	logical	Mi	U	1	1	16
103	2	MiF1_2	1432	logical	Mi	F	1	0	17
103	2	MiU1_2	1207	logical	Mi	U	1	1	18
104	2	MiU1_2	1138	logical	Mi	U	1	1	1
104	1	MiU2_1	653	logical	Mi	U	2	1	2
104	1	MiU1_1	555	logical	Mi	U	1	1	3
104	3	MiT1_3	716	logical	Mi	T	1	1	4
104	2	MiU2_2	533	logical	Mi	U	2	1	5
104	3	MiF2_3	653	logical	Mi	F	2	0	6
104	1	MiF2_1	613	logical	Mi	F	2	0	7
104	2	MiT1_2	602	logical	Mi	T	1	1	8
104	3	MiU1_3	517	logical	Mi	U	1	1	9
104	2	MiT2_2	516	logical	Mi	T	2	1	10
104	3	MiT2_3	440	logical	Mi	T	2	1	11
104	3	MiU2_3	545	logical	Mi	U	2	1	12
104	2	MiF2_2	545	logical	Mi	F	2	0	13
104	3	MiF1_3	647	logical	Mi	F	1	0	14
104	1	MiT2_1	842	logical	Mi	T	2	1	15
104	2	MiF1_2	577	logical	Mi	F	1	0	16
104	1	MiF1_1	654	logical	Mi	F	1	0	17
104	1	MiT1_1	512	logical	Mi	T	1	1	18
105	1	MiT1_1	1395	logical	Mi	T	1	1	1
105	3	MiT2_3	1716	logical	Mi	T	2	1	2
105	2	MiF2_2	1029	logical	Mi	F	2	0	3
105	3	MiF2_3	922	logical	Mi	F	2	0	4
105	2	MiT1_2	826	logical	Mi	T	1	1	5
105	3	MiU2_3	954	logical	Mi	U	2	1	6
105	1	MiF2_1	1690	logical	Mi	F	2	1	7
105	3	MiT1_3	700	logical	Mi	T	1	1	8
105	3	MiU1_3	650	logical	Mi	U	1	1	9
105	2	MiU2_2	1012	logical	Mi	U	2	1	10
105	1	MiF1_1	705	logical	Mi	F	1	0	11
105	2	MiT2_2	626	logical	Mi	T	2	1	12
105	1	MiT2_1	867	logical	Mi	T	2	1	13
105	1	MiU1_1	602	logical	Mi	U	1	1	14
105	2	MiU1_2	572	logical	Mi	U	1	1	15
105	2	MiF1_2	804	logical	Mi	F	1	0	16
105	3	MiF1_3	690	logical	Mi	F	1	0	17
105	1	MiU2_1	575	logical	Mi	U	2	1	18
106	1	MiT1_1	2314	logical	Mi	T	1	1	1
106	2	MiT1_2	486	logical	Mi	T	1	1	2
106	2	MiF1_2	1696	logical	Mi	F	1	1	3
106	1	MiT2_1	453	logical	Mi	T	2	1	4
106	2	MiT2_2	2489	logical	Mi	T	2	1	5
106	3	MiT2_3	570	logical	Mi	T	2	1	6
106	1	MiU1_1	472	logical	Mi	U	1	1	7
106	3	MiU1_3	689	logical	Mi	U	1	1	8
106	1	MiU2_1	434	logical	Mi	U	2	1	9
106	2	MiF2_2	683	logical	Mi	F	2	0	10
106	3	MiU2_3	404	logical	Mi	U	2	1	11
106	1	MiF2_1	698	logical	Mi	F	2	0	12
106	2	MiU1_2	390	logical	Mi	U	1	1	13
106	2	MiU2_2	569	logical	Mi	U	2	1	14
106	3	MiT1_3	481	logical	Mi	T	1	1	15
106	1	MiF1_1	1017	logical	Mi	F	1	1	16
106	3	MiF1_3	397	logical	Mi	F	1	1	17
106	3	MiF2_3	603	logical	Mi	F	2	0	18
107	2	MiF2_2	1334	logical	Mi	F	2	0	1
107	2	MiT1_2	1030	logical	Mi	T	1	1	2
107	1	MiT1_1	4136	logical	Mi	T	1	1	3
107	3	MiT2_3	990	logical	Mi	T	2	1	4
107	2	MiF1_2	1004	logical	Mi	F	1	0	5
107	3	MiF2_3	1007	logical	Mi	F	2	0	6
107	1	MiT2_1	1608	logical	Mi	T	2	1	7
107	3	MiT1_3	1097	logical	Mi	T	1	1	8
107	1	MiU2_1	1037	logical	Mi	U	2	1	9
107	2	MiU1_2	1108	logical	Mi	U	1	1	10
107	1	MiF2_1	1097	logical	Mi	F	2	0	11
107	1	MiU1_1	863	logical	Mi	U	1	1	12
107	2	MiU2_2	796	logical	Mi	U	2	1	13
107	2	MiT2_2	956	logical	Mi	T	2	1	14
107	3	MiU1_3	854	logical	Mi	U	1	1	15
107	3	MiF1_3	1019	logical	Mi	F	1	0	16
107	1	MiF1_1	1002	logical	Mi	F	1	0	17
107	3	MiU2_3	833	logical	Mi	U	2	1	18
108	3	MiT1_3	1789	logical	Mi	T	1	1	1
108	1	MiT2_1	1755	logical	Mi	T	2	1	2
108	2	MiU1_2	1217	logical	Mi	U	1	1	3
108	2	MiT1_2	646	logical	Mi	T	1	1	4
108	2	MiF1_2	1480	logical	Mi	F	1	0	5
108	1	MiF1_1	862	logical	Mi	F	1	0	6
108	3	MiF1_3	657	logical	Mi	F	1	0	7
108	3	MiT2_3	568	logical	Mi	T	2	1	8
108	2	MiT2_2	561	logical	Mi	T	2	1	9
108	3	MiU2_3	578	logical	Mi	U	2	1	10
108	3	MiU1_3	590	logical	Mi	U	1	1	11
108	1	MiU1_1	556	logical	Mi	U	1	1	12
108	2	MiU2_2	569	logical	Mi	U	2	1	13
108	1	MiU2_1	439	logical	Mi	U	2	1	14
108	3	MiF2_3	704	logical	Mi	F	2	0	15
108	2	MiF2_2	619	logical	Mi	F	2	0	16
108	1	MiT1_1	673	logical	Mi	T	1	1	17
108	1	MiF2_1	791	logical	Mi	F	2	0	18
109	3	MiF2_3	2585	logical	Mi	F	2	0	1
109	1	MiU2_1	1561	logical	Mi	U	2	1	2
109	2	MiT1_2	1220	logical	Mi	T	1	1	3
109	2	MiU2_2	1198	logical	Mi	U	2	1	4
109	1	MiT1_1	1031	logical	Mi	T	1	1	5
109	3	MiU1_3	942	logical	Mi	U	1	1	6
109	1	MiF1_1	1634	logical	Mi	F	1	0	7
109	3	MiF1_3	1061	logical	Mi	F	1	0	8
109	3	MiT2_3	1175	logical	Mi	T	2	1	9
109	3	MiT1_3	1165	logical	Mi	T	1	1	10
109	2	MiT2_2	1903	logical	Mi	T	2	1	11
109	3	MiU2_3	1110	logical	Mi	U	2	1	12
109	1	MiF2_1	1148	logical	Mi	F	2	0	13
109	1	MiT2_1	1043	logical	Mi	T	2	1	14
109	1	MiU1_1	1243	logical	Mi	U	1	1	15
109	2	MiF2_2	1724	logical	Mi	F	2	0	16
109	2	MiU1_2	977	logical	Mi	U	1	1	17
109	2	MiF1_2	2095	logical	Mi	F	1	0	18
110	2	MiT2_2	1331	logical	Mi	T	2	1	1
110	3	MiU2_3	713	logical	Mi	U	2	1	2
110	1	MiF2_1	1068	logical	Mi	F	2	0	3
110	2	MiU1_2	744	logical	Mi	U	1	1	4
110	2	MiU2_2	595	logical	Mi	U	2	1	5
110	1	MiU2_1	587	logical	Mi	U	2	1	6
110	1	MiT1_1	741	logical	Mi	T	1	1	7
110	1	MiF1_1	629	logical	Mi	F	1	0	8
110	2	MiT1_2	710	logical	Mi	T	1	1	9
110	3	MiF2_3	729	logical	Mi	F	2	0	10
110	3	MiT2_3	753	logical	Mi	T	2	1	11
110	2	MiF1_2	892	logical	Mi	F	1	0	12
110	2	MiF2_2	638	logical	Mi	F	2	0	13
110	3	MiU1_3	821	logical	Mi	U	1	1	14
110	3	MiT1_3	799	logical	Mi	T	1	1	15
110	1	MiU1_1	674	logical	Mi	U	1	1	16
110	3	MiF1_3	612	logical	Mi	F	1	0	17
110	1	MiT2_1	594	logical	Mi	T	2	1	18
111	3	MiT1_3	2347	logical	Mi	T	1	1	1
111	2	MiT1_2	2396	logical	Mi	T	1	1	2
111	1	MiF1_1	2156	logical	Mi	F	1	0	3
111	1	MiT2_1	1629	logical	Mi	T	2	1	4
111	1	MiT1_1	3481	logical	Mi	T	1	0	5
111	2	MiF1_2	1429	logical	Mi	F	1	0	6
111	3	MiU2_3	1593	logical	Mi	U	2	1	7
111	3	MiT2_3	1595	logical	Mi	T	2	1	8
111	1	MiU2_1	972	logical	Mi	U	2	1	9
111	1	MiF2_1	1198	logical	Mi	F	2	0	10
111	2	MiT2_2	1465	logical	Mi	T	2	1	11
111	3	MiF1_3	1447	logical	Mi	F	1	0	12
111	3	MiU1_3	1190	logical	Mi	U	1	1	13
111	3	MiF2_3	932	logical	Mi	F	2	0	14
111	2	MiF2_2	2709	logical	Mi	F	2	0	15
111	2	MiU2_2	1044	logical	Mi	U	2	1	16
111	1	MiU1_1	1303	logical	Mi	U	1	1	17
111	2	MiU1_2	1768	logical	Mi	U	1	1	18
112	1	MiF1_1	2844	logical	Mi	F	1	0	1
112	2	MiT2_2	1753	logical	Mi	T	2	1	2
112	3	MiT1_3	930	logical	Mi	T	1	1	3
112	3	MiF2_3	1000	logical	Mi	F	2	0	4
112	1	MiT1_1	2135	logical	Mi	T	1	0	5
112	1	MiT2_1	863	logical	Mi	T	2	1	6
112	2	MiF1_2	1393	logical	Mi	F	1	0	7
112	2	MiF2_2	853	logical	Mi	F	2	0	8
112	1	MiF2_1	707	logical	Mi	F	2	0	9
112	1	MiU1_1	1270	logical	Mi	U	1	0	10
112	3	MiU2_3	874	logical	Mi	U	2	1	11
112	2	MiT1_2	966	logical	Mi	T	1	1	12
112	1	MiU2_1	965	logical	Mi	U	2	0	13
112	2	MiU2_2	1337	logical	Mi	U	2	1	14
112	3	MiF1_3	1090	logical	Mi	F	1	0	15
112	3	MiT2_3	1021	logical	Mi	T	2	1	16
112	3	MiU1_3	1685	logical	Mi	U	1	1	17
112	2	MiU1_2	604	logical	Mi	U	1	1	18
113	2	MiF2_2	2015	logical	Mi	F	2	0	1
113	1	MiT1_1	1384	logical	Mi	T	1	1	2
113	3	MiF2_3	1188	logical	Mi	F	2	0	3
113	3	MiT2_3	923	logical	Mi	T	2	1	4
113	1	MiF1_1	1093	logical	Mi	F	1	0	5
113	2	MiU1_2	1128	logical	Mi	U	1	1	6
113	3	MiU2_3	3404	logical	Mi	U	2	1	7
113	2	MiT2_2	896	logical	Mi	T	2	1	8
113	3	MiU1_3	1175	logical	Mi	U	1	1	9
113	2	MiT1_2	766	logical	Mi	T	1	1	10
113	1	MiU2_1	2297	logical	Mi	U	2	1	11
113	3	MiT1_3	952	logical	Mi	T	1	1	12
113	2	MiF1_2	1029	logical	Mi	F	1	0	13
113	3	MiF1_3	750	logical	Mi	F	1	0	14
113	1	MiF2_1	919	logical	Mi	F	2	0	15
113	1	MiU1_1	5807	logical	Mi	U	1	0	16
113	2	MiU2_2	1027	logical	Mi	U	2	1	17
113	1	MiT2_1	1637	logical	Mi	T	2	1	18
114	3	MiU1_3	1751	logical	Mi	U	1	1	1
114	2	MiU2_2	1080	logical	Mi	U	2	1	2
114	1	MiU1_1	1300	logical	Mi	U	1	1	3
114	1	MiT1_1	1536	logical	Mi	T	1	1	4
114	2	MiT2_2	1076	logical	Mi	T	2	1	5
114	3	MiF2_3	2707	logical	Mi	F	2	0	6
114	3	MiF1_3	1403	logical	Mi	F	1	0	7
114	3	MiT1_3	1201	logical	Mi	T	1	1	8
114	2	MiU1_2	1124	logical	Mi	U	1	1	9
114	1	MiT2_1	2046	logical	Mi	T	2	0	10
114	2	MiT1_2	1346	logical	Mi	T	1	1	11
114	1	MiU2_1	1060	logical	Mi	U	2	1	12
114	1	MiF1_1	1317	logical	Mi	F	1	0	13
114	3	MiT2_3	1137	logical	Mi	T	2	1	14
114	2	MiF1_2	2364	logical	Mi	F	1	0	15
114	3	MiU2_3	1035	logical	Mi	U	2	1	16
114	1	MiF2_1	1305	logical	Mi	F	2	0	17
114	2	MiF2_2	1348	logical	Mi	F	2	0	18
115	2	MiU1_2	1938	logical	Mi	U	1	1	1
115	1	MiF1_1	1625	logical	Mi	F	1	0	2
115	1	MiT2_1	1422	logical	Mi	T	2	0	3
115	3	MiF1_3	1094	logical	Mi	F	1	0	4
115	3	MiU2_3	1479	logical	Mi	U	2	1	5
115	3	MiU1_3	2050	logical	Mi	U	1	1	6
115	1	MiU2_1	1006	logical	Mi	U	2	1	7
115	3	MiT1_3	2092	logical	Mi	T	1	1	8
115	2	MiF1_2	2387	logical	Mi	F	1	0	9
115	3	MiT2_3	1039	logical	Mi	T	2	1	10
115	1	MiT1_1	1047	logical	Mi	T	1	1	11
115	3	MiF2_3	782	logical	Mi	F	2	1	12
115	2	MiT1_2	853	logical	Mi	T	1	1	13
115	1	MiU1_1	1123	logical	Mi	U	1	1	14
115	2	MiF2_2	1422	logical	Mi	F	2	0	15
115	2	MiT2_2	1140	logical	Mi	T	2	1	16
115	1	MiF2_1	937	logical	Mi	F	2	0	17
115	2	MiU2_2	1016	logical	Mi	U	2	1	18
116	1	MiF1_1	1050	logical	Mi	F	1	0	1
116	2	MiF2_2	1073	logical	Mi	F	2	0	2
116	3	MiU2_3	869	logical	Mi	U	2	1	3
116	2	MiU2_2	726	logical	Mi	U	2	1	4
116	1	MiU1_1	912	logical	Mi	U	1	1	5
116	1	MiT1_1	982	logical	Mi	T	1	1	6
116	2	MiT1_2	917	logical	Mi	T	1	1	7
116	1	MiU2_1	760	logical	Mi	U	2	1	8
116	3	MiF2_3	839	logical	Mi	F	2	0	9
116	2	MiU1_2	815	logical	Mi	U	1	1	10
116	2	MiF1_2	2044	logical	Mi	F	1	1	11
116	3	MiF1_3	1359	logical	Mi	F	1	0	12
116	1	MiT2_1	819	logical	Mi	T	2	1	13
116	2	MiT2_2	737	logical	Mi	T	2	1	14
116	3	MiT2_3	729	logical	Mi	T	2	1	15
116	3	MiT1_3	832	logical	Mi	T	1	1	16
116	3	MiU1_3	779	logical	Mi	U	1	1	17
116	1	MiF2_1	744	logical	Mi	F	2	0	18
117	2	OrT2_2	1375	logical	Or	T	2	1	1
117	3	OrU1_3	1623	logical	Or	U	1	0	2
117	2	OrU1_2	926	logical	Or	U	1	1	3
117	3	OrF2_3	1190	logical	Or	F	2	0	4
117	1	OrU1_1	1020	logical	Or	U	1	1	5
117	2	OrF1_2	1023	logical	Or	F	1	0	6
117	1	OrF1_1	1316	logical	Or	F	1	0	7
117	1	OrF2_1	771	logical	Or	F	2	0	8
117	3	OrT2_3	821	logical	Or	T	2	1	9
117	1	OrT1_1	538	logical	Or	T	1	1	10
117	2	OrF2_2	921	logical	Or	F	2	0	11
117	1	OrU2_1	572	logical	Or	U	2	1	12
117	2	OrT1_2	810	logical	Or	T	1	1	13
117	3	OrU2_3	679	logical	Or	U	2	1	14
117	3	OrT1_3	672	logical	Or	T	1	1	15
117	2	OrU2_2	537	logical	Or	U	2	1	16
117	3	OrF1_3	769	logical	Or	F	1	0	17
117	1	OrT2_1	948	logical	Or	T	2	1	18
118	3	OrU2_3	1253	logical	Or	U	2	1	1
118	2	OrF2_2	1188	logical	Or	F	2	0	2
118	3	OrT2_3	473	logical	Or	T	2	1	3
118	3	OrT1_3	670	logical	Or	T	1	1	4
118	1	OrF2_1	1129	logical	Or	F	2	0	5
118	1	OrU2_1	757	logical	Or	U	2	1	6
118	3	OrF1_3	1481	logical	Or	F	1	0	7
118	3	OrF2_3	627	logical	Or	F	2	0	8
118	2	OrU2_2	632	logical	Or	U	2	1	9
118	1	OrF1_1	691	logical	Or	F	1	0	10
118	1	OrT1_1	619	logical	Or	T	1	1	11
118	2	OrT2_2	785	logical	Or	T	2	1	12
118	2	OrT1_2	828	logical	Or	T	1	1	13
118	2	OrU1_2	625	logical	Or	U	1	1	14
118	1	OrU1_1	708	logical	Or	U	1	1	15
118	3	OrU1_3	536	logical	Or	U	1	1	16
118	2	OrF1_2	677	logical	Or	F	1	0	17
118	1	OrT2_1	605	logical	Or	T	2	1	18
119	2	OrU2_2	1114	logical	Or	U	2	1	1
119	1	OrU2_1	659	logical	Or	U	2	1	2
119	2	OrU1_2	699	logical	Or	U	1	1	3
119	1	OrF2_1	1500	logical	Or	F	2	0	4
119	2	OrT2_2	1066	logical	Or	T	2	1	5
119	2	OrF2_2	1567	logical	Or	F	2	0	6
119	3	OrF2_3	1036	logical	Or	F	2	0	7
119	2	OrT1_2	981	logical	Or	T	1	1	8
119	1	OrT2_1	1259	logical	Or	T	2	1	9
119	1	OrU1_1	707	logical	Or	U	1	1	10
119	3	OrT2_3	642	logical	Or	T	2	1	11
119	1	OrT1_1	1172	logical	Or	T	1	1	12
119	2	OrF1_2	1563	logical	Or	F	1	0	13
119	3	OrU1_3	915	logical	Or	U	1	1	14
119	3	OrU2_3	947	logical	Or	U	2	1	15
119	1	OrF1_1	2797	logical	Or	F	1	0	16
119	3	OrF1_3	1433	logical	Or	F	1	0	17
119	3	OrT1_3	1028	logical	Or	T	1	1	18
120	2	OrU1_2	1612	logical	Or	U	1	1	1
120	2	OrU2_2	721	logical	Or	U	2	1	2
120	2	OrF1_2	1517	logical	Or	F	1	1	3
120	1	OrF1_1	926	logical	Or	F	1	0	4
120	2	OrT1_2	1222	logical	Or	T	1	1	5
120	3	OrT2_3	1421	logical	Or	T	2	1	6
120	1	OrU1_1	816	logical	Or	U	1	1	7
120	3	OrU2_3	616	logical	Or	U	2	1	8
120	1	OrT1_1	1081	logical	Or	T	1	1	9
120	2	OrT2_2	1804	logical	Or	T	2	1	10
120	3	OrF1_3	2380	logical	Or	F	1	0	11
120	1	OrU2_1	732	logical	Or	U	2	1	12
120	3	OrF2_3	879	logical	Or	F	2	0	13
120	2	OrF2_2	646	logical	Or	F	2	0	14
120	3	OrU1_3	677	logical	Or	U	1	1	15
120	1	OrF2_1	949	logical	Or	F	2	0	16
120	1	OrT2_1	1158	logical	Or	T	2	1	17
120	3	OrT1_3	1653	logical	Or	T	1	1	18
121	2	OrF2_2	2376	logical	Or	F	2	0	1
121	2	OrT2_2	2043	logical	Or	T	2	1	2
121	1	OrU2_1	1962	logical	Or	U	2	1	3
121	1	OrF1_1	1880	logical	Or	F	1	0	4
121	1	OrU1_1	1442	logical	Or	U	1	1	5
121	3	OrT1_3	2693	logical	Or	T	1	1	6
121	3	OrF2_3	1811	logical	Or	F	2	0	7
121	3	OrF1_3	1674	logical	Or	F	1	0	8
121	2	OrT1_2	1433	logical	Or	T	1	1	9
121	1	OrF2_1	1465	logical	Or	F	2	0	10
121	1	OrT2_1	2365	logical	Or	T	2	1	11
121	2	OrF1_2	1601	logical	Or	F	1	0	12
121	1	OrT1_1	1314	logical	Or	T	1	1	13
121	3	OrU2_3	1553	logical	Or	U	2	1	14
121	2	OrU1_2	1443	logical	Or	U	1	1	15
121	2	OrU2_2	1369	logical	Or	U	2	1	16
121	3	OrU1_3	1346	logical	Or	U	1	1	17
121	3	OrT2_3	1365	logical	Or	T	2	1	18
122	1	OrU2_1	1518	logical	Or	U	2	1	1
122	2	OrU1_2	1295	logical	Or	U	1	1	2
122	1	OrU1_1	771	logical	Or	U	1	1	3
122	2	OrF1_2	870	logical	Or	F	1	0	4
122	3	OrT2_3	733	logical	Or	T	2	1	5
122	1	OrF2_1	757	logical	Or	F	2	0	6
122	2	OrT2_2	652	logical	Or	T	2	1	7
122	3	OrU1_3	592	logical	Or	U	1	1	8
122	3	OrU2_3	606	logical	Or	U	2	1	9
122	1	OrF1_1	746	logical	Or	F	1	0	10
122	3	OrF1_3	865	logical	Or	F	1	0	11
122	1	OrT1_1	595	logical	Or	T	1	1	12
122	1	OrT2_1	614	logical	Or	T	2	1	13
122	3	OrF2_3	715	logical	Or	F	2	0	14
122	2	OrF2_2	693	logical	Or	F	2	0	15
122	2	OrU2_2	608	logical	Or	U	2	1	16
122	3	OrT1_3	629	logical	Or	T	1	1	17
122	2	OrT1_2	594	logical	Or	T	1	1	18
123	2	OrF2_2	2069	logical	Or	F	2	0	1
123	3	OrT1_3	778	logical	Or	T	1	1	2
123	1	OrU1_1	631	logical	Or	U	1	1	3
123	3	OrF1_3	769	logical	Or	F	1	0	4
123	2	OrT1_2	780	logical	Or	T	1	1	5
123	2	OrF1_2	785	logical	Or	F	1	0	6
123	1	OrU2_1	973	logical	Or	U	2	1	7
123	2	OrU1_2	2150	logical	Or	U	1	1	8
123	1	OrF2_1	861	logical	Or	F	2	0	9
123	2	OrU2_2	917	logical	Or	U	2	1	10
123	1	OrT1_1	585	logical	Or	T	1	1	11
123	3	OrF2_3	810	logical	Or	F	2	0	12
123	3	OrT2_3	1495	logical	Or	T	2	1	13
123	1	OrF1_1	605	logical	Or	F	1	0	14
123	2	OrT2_2	854	logical	Or	T	2	1	15
123	3	OrU1_3	742	logical	Or	U	1	1	16
123	1	OrT2_1	535	logical	Or	T	2	0	17
123	3	OrU2_3	888	logical	Or	U	2	1	18
124	2	OrU1_2	1629	logical	Or	U	1	1	1
124	3	OrT2_3	1068	logical	Or	T	2	1	2
124	1	OrT2_1	1057	logical	Or	T	2	1	3
124	3	OrF1_3	1638	logical	Or	F	1	0	4
124	2	OrT1_2	1138	logical	Or	T	1	1	5
124	3	OrF2_3	1651	logical	Or	F	2	0	6
124	2	OrF2_2	916	logical	Or	F	2	0	7
124	1	OrU2_1	894	logical	Or	U	2	1	8
124	2	OrU2_2	698	logical	Or	U	2	1	9
124	1	OrF1_1	1220	logical	Or	F	1	0	10
124	1	OrU1_1	681	logical	Or	U	1	1	11
124	1	OrT1_1	750	logical	Or	T	1	1	12
124	3	OrU1_3	682	logical	Or	U	1	1	13
124	3	OrU2_3	886	logical	Or	U	2	1	14
124	2	OrF1_2	801	logical	Or	F	1	0	15
124	3	OrT1_3	664	logical	Or	T	1	1	16
124	1	OrF2_1	861	logical	Or	F	2	0	17
124	2	OrT2_2	902	logical	Or	T	2	1	18
125	3	OrU1_3	6779	logical	Or	U	1	1	1
125	3	OrU2_3	1358	logical	Or	U	2	1	2
125	2	OrT2_2	2637	logical	Or	T	2	1	3
125	1	OrF1_1	1783	logical	Or	F	1	0	4
125	2	OrT1_2	1454	logical	Or	T	1	1	5
125	2	OrF1_2	1382	logical	Or	F	1	0	6
125	3	OrF1_3	1773	logical	Or	F	1	0	7
125	3	OrT2_3	1255	logical	Or	T	2	1	8
125	1	OrT1_1	1309	logical	Or	T	1	1	9
125	1	OrU1_1	1109	logical	Or	U	1	1	10
125	2	OrU2_2	1144	logical	Or	U	2	1	11
125	1	OrT2_1	1841	logical	Or	T	2	1	12
125	3	OrT1_3	1000	logical	Or	T	1	1	13
125	1	OrU2_1	4694	logical	Or	U	2	1	14
125	3	OrF2_3	2244	logical	Or	F	2	0	15
125	2	OrU1_2	1810	logical	Or	U	1	1	16
125	2	OrF2_2	2111	logical	Or	F	2	0	17
125	1	OrF2_1	1521	logical	Or	F	2	0	18
126	1	OrU1_1	757	logical	Or	U	1	1	1
126	3	OrT2_3	830	logical	Or	T	2	0	2
126	1	OrT2_1	950	logical	Or	T	2	0	3
126	2	OrT1_2	459	logical	Or	T	1	0	4
126	3	OrU1_3	518	logical	Or	U	1	1	5
126	2	OrU1_2	446	logical	Or	U	1	1	6
126	1	OrF2_1	469	logical	Or	F	2	0	7
126	2	OrF1_2	1177	logical	Or	F	1	1	8
126	3	OrT1_3	566	logical	Or	T	1	0	9
126	1	OrT1_1	544	logical	Or	T	1	0	10
126	3	OrU2_3	526	logical	Or	U	2	1	11
126	3	OrF1_3	513	logical	Or	F	1	0	12
126	2	OrU2_2	445	logical	Or	U	2	1	13
126	1	OrU2_1	427	logical	Or	U	2	1	14
126	3	OrF2_3	609	logical	Or	F	2	1	15
126	1	OrF1_1	568	logical	Or	F	1	1	16
126	2	OrT2_2	571	logical	Or	T	2	0	17
126	2	OrF2_2	513	logical	Or	F	2	1	18
127	1	OrU2_1	1152	logical	Or	U	2	1	1
127	2	OrU2_2	590	logical	Or	U	2	1	2
127	1	OrF1_1	467	logical	Or	F	1	0	3
127	3	OrU2_3	803	logical	Or	U	2	1	4
127	1	OrT2_1	1193	logical	Or	T	2	1	5
127	3	OrU1_3	1249	logical	Or	U	1	0	6
127	1	OrU1_1	1005	logical	Or	U	1	1	7
127	3	OrF1_3	641	logical	Or	F	1	0	8
127	1	OrF2_1	847	logical	Or	F	2	0	9
127	3	OrT1_3	1411	logical	Or	T	1	1	10
127	2	OrF1_2	770	logical	Or	F	1	0	11
127	2	OrU1_2	691	logical	Or	U	1	1	12
127	2	OrF2_2	654	logical	Or	F	2	0	13
127	3	OrF2_3	1055	logical	Or	F	2	0	14
127	1	OrT1_1	485	logical	Or	T	1	1	15
127	2	OrT1_2	518	logical	Or	T	1	1	16
127	3	OrT2_3	573	logical	Or	T	2	1	17
127	2	OrT2_2	832	logical	Or	T	2	0	18
128	2	OrU1_2	1098	logical	Or	U	1	1	1
128	2	OrT2_2	903	logical	Or	T	2	1	2
128	3	OrF2_3	747	logical	Or	F	2	0	3
128	3	OrU1_3	901	logical	Or	U	1	1	4
128	3	OrT1_3	675	logical	Or	T	1	1	5
128	1	OrT2_1	552	logical	Or	T	2	1	6
128	1	OrU1_1	857	logical	Or	U	1	1	7
128	1	OrU2_1	571	logical	Or	U	2	1	8
128	2	OrT1_2	820	logical	Or	T	1	1	9
128	1	OrF2_1	930	logical	Or	F	2	0	10
128	1	OrF1_1	900	logical	Or	F	1	0	11
128	3	OrT2_3	731	logical	Or	T	2	1	12
128	3	OrF1_3	739	logical	Or	F	1	0	13
128	1	OrT1_1	761	logical	Or	T	1	1	14
128	2	OrU2_2	916	logical	Or	U	2	1	15
128	2	OrF1_2	804	logical	Or	F	1	0	16
128	3	OrU2_3	698	logical	Or	U	2	1	17
128	2	OrF2_2	779	logical	Or	F	2	0	18
129	1	OrU1_1	1522	logical	Or	U	1	1	1
129	1	OrT2_1	10007	logical	Or	T	2	0	2
129	1	OrT1_1	2016	logical	Or	T	1	1	3
129	1	OrF2_1	2931	logical	Or	F	2	0	4
129	3	OrF2_3	4569	logical	Or	F	2	0	5
129	3	OrF1_3	4296	logical	Or	F	1	0	6
129	2	OrF1_2	2523	logical	Or	F	1	0	7
129	3	OrU1_3	2063	logical	Or	U	1	1	8
129	3	OrT1_3	3711	logical	Or	T	1	1	9
129	3	OrT2_3	2149	logical	Or	T	2	1	10
129	2	OrF2_2	4927	logical	Or	F	2	0	11
129	1	OrF1_1	3194	logical	Or	F	1	0	12
129	2	OrT2_2	2258	logical	Or	T	2	1	13
129	2	OrU1_2	1571	logical	Or	U	1	1	14
129	3	OrU2_3	2350	logical	Or	U	2	1	15
129	2	OrU2_2	1409	logical	Or	U	2	1	16
129	2	OrT1_2	2810	logical	Or	T	1	1	17
129	1	OrU2_1	1197	logical	Or	U	2	1	18
130	3	OrU1_3	1879	logical	Or	U	1	0	1
130	1	OrU2_1	2282	logical	Or	U	2	0	2
130	1	OrT2_1	2551	logical	Or	T	2	0	3
130	2	OrU2_2	1273	logical	Or	U	2	0	4
130	3	OrF2_3	713	logical	Or	F	2	0	5
130	3	OrT2_3	915	logical	Or	T	2	0	6
130	2	OrF1_2	376	logical	Or	F	1	0	7
130	2	OrT1_2	1591	logical	Or	T	1	1	8
130	1	OrU1_1	631	logical	Or	U	1	0	9
130	1	OrF1_1	475	logical	Or	F	1	0	10
130	3	OrF1_3	377	logical	Or	F	1	1	11
130	2	OrU1_2	294	logical	Or	U	1	0	12
130	1	OrF2_1	617	logical	Or	F	2	1	13
130	1	OrT1_1	489	logical	Or	T	1	0	14
130	3	OrT1_3	324	logical	Or	T	1	1	15
130	2	OrT2_2	259	logical	Or	T	2	0	16
130	2	OrF2_2	298	logical	Or	F	2	1	17
130	3	OrU2_3	329	logical	Or	U	2	0	18
131	3	OrF1_3	3413	logical	Or	F	1	0	1
131	2	OrT2_2	2731	logical	Or	T	2	1	2
131	3	OrU1_3	2678	logical	Or	U	1	1	3
131	3	OrT2_3	2347	logical	Or	T	2	1	4
131	3	OrT1_3	2381	logical	Or	T	1	1	5
131	1	OrU1_1	1697	logical	Or	U	1	1	6
131	2	OrU2_2	1680	logical	Or	U	2	1	7
131	1	OrT2_1	1744	logical	Or	T	2	1	8
131	3	OrU2_3	1764	logical	Or	U	2	1	9
131	2	OrF1_2	2079	logical	Or	F	1	0	10
131	1	OrF1_1	2277	logical	Or	F	1	0	11
131	1	OrU2_1	1847	logical	Or	U	2	1	12
131	1	OrF2_1	1656	logical	Or	F	2	0	13
131	2	OrT1_2	2017	logical	Or	T	1	1	14
131	2	OrU1_2	1447	logical	Or	U	1	1	15
131	2	OrF2_2	1625	logical	Or	F	2	0	16
131	3	OrF2_3	1663	logical	Or	F	2	0	17
131	1	OrT1_1	1700	logical	Or	T	1	1	18
132	2	OrT2_2	2683	logical	Or	T	2	1	1
132	3	OrF1_3	1248	logical	Or	F	1	0	2
132	1	OrT1_1	908	logical	Or	T	1	1	3
132	2	OrT1_2	581	logical	Or	T	1	1	4
132	2	OrU1_2	781	logical	Or	U	1	1	5
132	1	OrU2_1	681	logical	Or	U	2	0	6
132	3	OrT2_3	744	logical	Or	T	2	1	7
132	3	OrU2_3	743	logical	Or	U	2	1	8
132	1	OrU1_1	544	logical	Or	U	1	1	9
132	2	OrF1_2	1290	logical	Or	F	1	0	10
132	3	OrT1_3	1487	logical	Or	T	1	1	11
132	3	OrF2_3	848	logical	Or	F	2	0	12
132	3	OrU1_3	621	logical	Or	U	1	1	13
132	1	OrT2_1	933	logical	Or	T	2	1	14
132	2	OrU2_2	666	logical	Or	U	2	1	15
132	1	OrF2_1	1167	logical	Or	F	2	0	16
132	1	OrF1_1	838	logical	Or	F	1	0	17
132	2	OrF2_2	803	logical	Or	F	2	0	18
133	1	OrT1_1	619	logical	Or	T	1	1	1
133	2	OrU1_2	755	logical	Or	U	1	1	2
133	1	OrF2_1	596	logical	Or	F	2	0	3
133	2	OrT2_2	628	logical	Or	T	2	0	4
133	3	OrT1_3	517	logical	Or	T	1	1	5
133	3	OrU2_3	628	logical	Or	U	2	0	6
133	1	OrF1_1	515	logical	Or	F	1	0	7
133	3	OrT2_3	539	logical	Or	T	2	0	8
133	1	OrU1_1	444	logical	Or	U	1	1	9
133	3	OrU1_3	468	logical	Or	U	1	1	10
133	2	OrF2_2	530	logical	Or	F	2	0	11
133	3	OrF1_3	508	logical	Or	F	1	0	12
133	2	OrF1_2	410	logical	Or	F	1	0	13
133	1	OrT2_1	436	logical	Or	T	2	0	14
133	2	OrU2_2	428	logical	Or	U	2	0	15
133	2	OrT1_2	500	logical	Or	T	1	1	16
133	3	OrF2_3	476	logical	Or	F	2	0	17
133	1	OrU2_1	469	logical	Or	U	2	0	18
134	3	OrF1_3	1225	logical	Or	F	1	0	1
134	3	OrT1_3	1631	logical	Or	T	1	1	2
134	1	OrU2_1	1438	logical	Or	U	2	1	3
134	1	OrU1_1	753	logical	Or	U	1	1	4
134	2	OrF2_2	1820	logical	Or	F	2	0	5
134	1	OrF2_1	1213	logical	Or	F	2	0	6
134	3	OrT2_3	790	logical	Or	T	2	1	7
134	2	OrU2_2	799	logical	Or	U	2	1	8
134	3	OrU2_3	1088	logical	Or	U	2	1	9
134	3	OrF2_3	1100	logical	Or	F	2	0	10
134	2	OrF1_2	851	logical	Or	F	1	0	11
134	2	OrU1_2	807	logical	Or	U	1	1	12
134	1	OrF1_1	854	logical	Or	F	1	0	13
134	1	OrT1_1	881	logical	Or	T	1	1	14
134	3	OrU1_3	838	logical	Or	U	1	1	15
134	2	OrT2_2	1239	logical	Or	T	2	0	16
134	2	OrT1_2	659	logical	Or	T	1	1	17
134	1	OrT2_1	1158	logical	Or	T	2	1	18
135	3	OrF2_3	8360	logical	Or	F	2	1	1
135	2	OrF1_2	1911	logical	Or	F	1	1	2
135	2	OrF2_2	1632	logical	Or	F	2	1	3
135	3	OrU2_3	1708	logical	Or	U	2	1	4
135	2	OrT1_2	1372	logical	Or	T	1	1	5
135	1	OrT2_1	1305	logical	Or	T	2	1	6
135	1	OrF1_1	1188	logical	Or	F	1	1	7
135	2	OrT2_2	1189	logical	Or	T	2	1	8
135	3	OrT1_3	1328	logical	Or	T	1	1	9
135	3	OrU1_3	4094	logical	Or	U	1	1	10
135	1	OrT1_1	1153	logical	Or	T	1	1	11
135	1	OrU1_1	921	logical	Or	U	1	1	12
135	1	OrU2_1	373	logical	Or	U	2	1	13
135	2	OrU2_2	296	logical	Or	U	2	1	14
135	2	OrU1_2	248	logical	Or	U	1	1	15
135	3	OrF1_3	280	logical	Or	F	1	1	16
135	1	OrF2_1	154	logical	Or	F	2	1	17
135	3	OrT2_3	151	logical	Or	T	2	1	18
136	2	OrF1_2	1523	logical	Or	F	1	0	1
136	2	OrU1_2	829	logical	Or	U	1	1	2
136	3	OrU1_3	1388	logical	Or	U	1	1	3
136	2	OrU2_2	1548	logical	Or	U	2	1	4
136	2	OrT1_2	678	logical	Or	T	1	1	5
136	1	OrU1_1	760	logical	Or	U	1	1	6
136	3	OrF1_3	902	logical	Or	F	1	0	7
136	3	OrF2_3	1341	logical	Or	F	2	0	8
136	3	OrU2_3	710	logical	Or	U	2	0	9
136	3	OrT2_3	669	logical	Or	T	2	1	10
136	3	OrT1_3	1596	logical	Or	T	1	1	11
136	1	OrU2_1	1005	logical	Or	U	2	1	12
136	1	OrT2_1	1269	logical	Or	T	2	1	13
136	1	OrF2_1	1053	logical	Or	F	2	0	14
136	1	OrF1_1	859	logical	Or	F	1	0	15
136	1	OrT1_1	806	logical	Or	T	1	1	16
136	2	OrF2_2	1269	logical	Or	F	2	0	17
136	2	OrT2_2	749	logical	Or	T	2	1	18
137	3	OrT2_3	1444	logical	Or	T	2	1	1
137	2	OrU2_2	1270	logical	Or	U	2	1	2
137	2	OrF1_2	1730	logical	Or	F	1	0	3
137	1	OrF2_1	2074	logical	Or	F	2	0	4
137	3	OrF1_3	2079	logical	Or	F	1	0	5
137	1	OrT1_1	1202	logical	Or	T	1	1	6
137	3	OrF2_3	1664	logical	Or	F	2	0	7
137	2	OrT2_2	1997	logical	Or	T	2	1	8
137	1	OrF1_1	2133	logical	Or	F	1	0	9
137	3	OrT1_3	2131	logical	Or	T	1	1	10
137	3	OrU1_3	1380	logical	Or	U	1	1	11
137	2	OrF2_2	1518	logical	Or	F	2	0	12
137	3	OrU2_3	2798	logical	Or	U	2	1	13
137	2	OrU1_2	1168	logical	Or	U	1	1	14
137	1	OrT2_1	1258	logical	Or	T	2	1	15
137	1	OrU1_1	1099	logical	Or	U	1	1	16
137	2	OrT1_2	1198	logical	Or	T	1	1	17
137	1	OrU2_1	1943	logical	Or	U	2	1	18
138	3	OrF2_3	1483	logical	Or	F	2	0	1
138	3	OrT2_3	782	logical	Or	T	2	1	2
138	3	OrU1_3	1112	logical	Or	U	1	1	3
138	1	OrT1_1	1183	logical	Or	T	1	1	4
138	1	OrU1_1	719	logical	Or	U	1	1	5
138	3	OrT1_3	1253	logical	Or	T	1	1	6
138	1	OrF2_1	827	logical	Or	F	2	0	7
138	2	OrF1_2	806	logical	Or	F	1	0	8
138	1	OrF1_1	799	logical	Or	F	1	0	9
138	2	OrT2_2	966	logical	Or	T	2	1	10
138	2	OrT1_2	668	logical	Or	T	1	1	11
138	2	OrU2_2	734	logical	Or	U	2	1	12
138	3	OrU2_3	564	logical	Or	U	2	1	13
138	2	OrU1_2	499	logical	Or	U	1	1	14
138	2	OrF2_2	789	logical	Or	F	2	0	15
138	3	OrF1_3	1368	logical	Or	F	1	1	16
138	1	OrU2_1	666	logical	Or	U	2	0	17
138	1	OrT2_1	929	logical	Or	T	2	0	18
139	1	OrT2_1	1010	logical	Or	T	2	1	1
139	3	OrT1_3	574	logical	Or	T	1	1	2
139	1	OrT1_1	460	logical	Or	T	1	1	3
139	1	OrU1_1	481	logical	Or	U	1	1	4
139	2	OrF2_2	543	logical	Or	F	2	0	5
139	1	OrF2_1	581	logical	Or	F	2	0	6
139	2	OrF1_2	385	logical	Or	F	1	0	7
139	3	OrF2_3	553	logical	Or	F	2	0	8
139	2	OrT1_2	530	logical	Or	T	1	1	9
139	1	OrF1_1	702	logical	Or	F	1	0	10
139	2	OrT2_2	642	logical	Or	T	2	1	11
139	2	OrU2_2	538	logical	Or	U	2	1	12
139	3	OrU2_3	449	logical	Or	U	2	1	13
139	3	OrF1_3	540	logical	Or	F	1	0	14
139	2	OrU1_2	547	logical	Or	U	1	1	15
139	1	OrU2_1	560	logical	Or	U	2	1	16
139	3	OrU1_3	645	logical	Or	U	1	1	17
139	3	OrT2_3	478	logical	Or	T	2	1	18
140	3	OrT1_3	1409	logical	Or	T	1	1	1
140	3	OrU1_3	773	logical	Or	U	1	1	2
140	2	OrT2_2	1301	logical	Or	T	2	1	3
140	1	OrF1_1	1250	logical	Or	F	1	0	4
140	2	OrT1_2	867	logical	Or	T	1	1	5
140	2	OrF1_2	819	logical	Or	F	1	0	6
140	3	OrF1_3	869	logical	Or	F	1	0	7
140	1	OrT1_1	906	logical	Or	T	1	1	8
140	1	OrU2_1	929	logical	Or	U	2	1	9
140	3	OrT2_3	1059	logical	Or	T	2	1	10
140	2	OrU1_2	914	logical	Or	U	1	1	11
140	1	OrU1_1	849	logical	Or	U	1	1	12
140	2	OrF2_2	1049	logical	Or	F	2	0	13
140	3	OrU2_3	883	logical	Or	U	2	1	14
140	3	OrF2_3	885	logical	Or	F	2	0	15
140	1	OrF2_1	926	logical	Or	F	2	0	16
140	1	OrT2_1	1344	logical	Or	T	2	1	17
140	2	OrU2_2	808	logical	Or	U	2	1	18
141	1	OrU2_1	1093	logical	Or	U	2	1	1
141	2	OrF2_2	846	logical	Or	F	2	0	2
141	1	OrT1_1	2125	logical	Or	T	1	0	3
141	2	OrU1_2	686	logical	Or	U	1	1	4
141	1	OrU1_1	606	logical	Or	U	1	1	5
141	3	OrT2_3	1279	logical	Or	T	2	1	6
141	3	OrT1_3	1790	logical	Or	T	1	1	7
141	1	OrF2_1	942	logical	Or	F	2	0	8
141	2	OrU2_2	901	logical	Or	U	2	1	9
141	2	OrT2_2	1637	logical	Or	T	2	1	10
141	1	OrF1_1	1110	logical	Or	F	1	0	11
141	3	OrF1_3	1663	logical	Or	F	1	0	12
141	1	OrT2_1	2077	logical	Or	T	2	1	13
141	3	OrU2_3	1413	logical	Or	U	2	1	14
141	2	OrT1_2	1541	logical	Or	T	1	1	15
141	3	OrF2_3	989	logical	Or	F	2	0	16
141	2	OrF1_2	3103	logical	Or	F	1	0	17
141	3	OrU1_3	653	logical	Or	U	1	1	18
142	1	OrT1_1	1673	logical	Or	T	1	0	1
142	2	OrF1_2	1515	logical	Or	F	1	1	2
142	1	OrF2_1	1975	logical	Or	F	2	0	3
142	3	OrF1_3	1484	logical	Or	F	1	0	4
142	1	OrU1_1	1968	logical	Or	U	1	1	5
142	2	OrF2_2	1416	logical	Or	F	2	0	6
142	2	OrT2_2	1533	logical	Or	T	2	1	7
142	2	OrU2_2	1104	logical	Or	U	2	1	8
142	3	OrU1_3	45838	logical	Or	U	1	1	9
142	1	OrT2_1	1172	logical	Or	T	2	1	10
142	3	OrT2_3	1085	logical	Or	T	2	1	11
142	1	OrF1_1	2301	logical	Or	F	1	0	12
142	1	OrU2_1	1129	logical	Or	U	2	1	13
142	3	OrF2_3	3138	logical	Or	F	2	0	14
142	2	OrU1_2	1007	logical	Or	U	1	1	15
142	3	OrU2_3	753	logical	Or	U	2	1	16
142	2	OrT1_2	510	logical	Or	T	1	1	17
142	3	OrT1_3	466	logical	Or	T	1	1	18
143	3	OrU2_3	2287	logical	Or	U	2	1	1
143	3	OrF1_3	1907	logical	Or	F	1	0	2
143	1	OrT1_1	2142	logical	Or	T	1	1	3
143	3	OrU1_3	827	logical	Or	U	1	1	4
143	3	OrT1_3	1482	logical	Or	T	1	1	5
143	2	OrU1_2	787	logical	Or	U	1	1	6
143	3	OrF2_3	1599	logical	Or	F	2	0	7
143	2	OrT1_2	2451	logical	Or	T	1	0	8
143	2	OrT2_2	916	logical	Or	T	2	1	9
143	2	OrF1_2	1602	logical	Or	F	1	0	10
143	3	OrT2_3	809	logical	Or	T	2	1	11
143	2	OrF2_2	1434	logical	Or	F	2	0	12
143	1	OrF1_1	1303	logical	Or	F	1	0	13
143	2	OrU2_2	1233	logical	Or	U	2	1	14
143	1	OrT2_1	754	logical	Or	T	2	1	15
143	1	OrU2_1	681	logical	Or	U	2	1	16
143	1	OrU1_1	649	logical	Or	U	1	1	17
143	1	OrF2_1	1625	logical	Or	F	2	0	18
144	3	OrU1_3	1106	logical	Or	U	1	1	1
144	2	OrU2_2	1738	logical	Or	U	2	1	2
144	1	OrF1_1	1040	logical	Or	F	1	0	3
144	1	OrU2_1	874	logical	Or	U	2	1	4
144	1	OrT1_1	802	logical	Or	T	1	1	5
144	3	OrF2_3	1042	logical	Or	F	2	0	6
144	1	OrF2_1	1574	logical	Or	F	2	0	7
144	2	OrT2_2	1122	logical	Or	T	2	1	8
144	1	OrU1_1	682	logical	Or	U	1	1	9
144	2	OrT1_2	772	logical	Or	T	1	1	10
144	3	OrT2_3	6626	logical	Or	T	2	1	11
144	1	OrT2_1	866	logical	Or	T	2	1	12
144	2	OrU1_2	646	logical	Or	U	1	1	13
144	3	OrU2_3	1034	logical	Or	U	2	1	14
144	2	OrF1_2	838	logical	Or	F	1	0	15
144	2	OrF2_2	3328	logical	Or	F	2	0	16
144	3	OrT1_3	1452	logical	Or	T	1	1	17
144	3	OrF1_3	1012	logical	Or	F	1	0	18
145	1	OrT1_1	1290	logical	Or	T	1	1	1
145	1	OrF2_1	960	logical	Or	F	2	0	2
145	2	OrU2_2	920	logical	Or	U	2	1	3
145	3	OrF2_3	826	logical	Or	F	2	0	4
145	3	OrU1_3	771	logical	Or	U	1	1	5
145	1	OrU2_1	955	logical	Or	U	2	1	6
145	2	OrF2_2	883	logical	Or	F	2	0	7
145	1	OrT2_1	1106	logical	Or	T	2	1	8
145	2	OrT2_2	755	logical	Or	T	2	1	9
145	2	OrT1_2	979	logical	Or	T	1	1	10
145	3	OrT2_3	1563	logical	Or	T	2	1	11
145	3	OrT1_3	827	logical	Or	T	1	1	12
145	1	OrU1_1	974	logical	Or	U	1	1	13
145	3	OrF1_3	843	logical	Or	F	1	0	14
145	1	OrF1_1	959	logical	Or	F	1	0	15
145	2	OrF1_2	758	logical	Or	F	1	0	16
145	3	OrU2_3	873	logical	Or	U	2	1	17
145	2	OrU1_2	684	logical	Or	U	1	1	18
146	2	OrU2_2	2487	logical	Or	U	2	1	1
146	3	OrF2_3	1090	logical	Or	F	2	0	2
146	2	OrF1_2	498	logical	Or	F	1	0	3
146	1	OrU1_1	790	logical	Or	U	1	1	4
146	1	OrT1_1	753	logical	Or	T	1	1	5
146	1	OrF2_1	656	logical	Or	F	2	0	6
146	1	OrU2_1	898	logical	Or	U	2	1	7
146	2	OrU1_2	1052	logical	Or	U	1	0	8
146	2	OrT2_2	815	logical	Or	T	2	1	9
146	1	OrF1_1	527	logical	Or	F	1	0	10
146	2	OrF2_2	529	logical	Or	F	2	0	11
146	3	OrU1_3	572	logical	Or	U	1	1	12
146	3	OrF1_3	618	logical	Or	F	1	0	13
146	3	OrT2_3	832	logical	Or	T	2	1	14
146	3	OrT1_3	927	logical	Or	T	1	0	15
146	3	OrU2_3	504	logical	Or	U	2	1	16
146	2	OrT1_2	1409	logical	Or	T	1	1	17
146	1	OrT2_1	607	logical	Or	T	2	0	18
147	1	OrT2_1	1639	logical	Or	T	2	1	1
147	3	OrT2_3	765	logical	Or	T	2	1	2
147	3	OrU1_3	964	logical	Or	U	1	1	3
147	2	OrU2_2	729	logical	Or	U	2	1	4
147	2	OrF1_2	791	logical	Or	F	1	0	5
147	3	OrT1_3	961	logical	Or	T	1	1	6
147	1	OrT1_1	921	logical	Or	T	1	1	7
147	3	OrU2_3	746	logical	Or	U	2	1	8
147	1	OrF2_1	1084	logical	Or	F	2	0	9
147	2	OrF2_2	1234	logical	Or	F	2	0	10
147	2	OrU1_2	704	logical	Or	U	1	1	11
147	1	OrU1_1	716	logical	Or	U	1	1	12
147	1	OrF1_1	651	logical	Or	F	1	0	13
147	2	OrT2_2	1482	logical	Or	T	2	1	14
147	2	OrT1_2	597	logical	Or	T	1	1	15
147	3	OrF1_3	769	logical	Or	F	1	0	16
147	3	OrF2_3	675	logical	Or	F	2	0	17
147	1	OrU2_1	541	logical	Or	U	2	1	18
148	1	TrU1_1	870	logical	Tr	U	1	1	1
148	1	TrU2_1	831	logical	Tr	U	2	1	2
148	2	TrF1_2	1672	logical	Tr	F	1	0	3
148	2	TrT1_2	917	logical	Tr	T	1	1	4
148	1	TrT2_1	926	logical	Tr	T	2	1	5
148	1	TrF2_1	967	logical	Tr	F	2	0	6
148	1	TrF1_1	848	logical	Tr	F	1	0	7
148	3	TrF2_3	789	logical	Tr	F	2	0	8
148	3	TrT2_3	889	logical	Tr	T	2	1	9
148	3	TrT1_3	855	logical	Tr	T	1	1	10
148	2	TrT2_2	839	logical	Tr	T	2	1	11
148	3	TrU1_3	772	logical	Tr	U	1	1	12
148	3	TrU2_3	855	logical	Tr	U	2	1	13
148	2	TrU2_2	738	logical	Tr	U	2	1	14
148	3	TrF1_3	814	logical	Tr	F	1	0	15
148	2	TrU1_2	720	logical	Tr	U	1	1	16
148	1	TrT1_1	665	logical	Tr	T	1	1	17
148	2	TrF2_2	747	logical	Tr	F	2	0	18
149	2	TrF1_2	1720	logical	Tr	F	1	0	1
149	3	TrT1_3	1208	logical	Tr	T	1	1	2
149	3	TrT2_3	815	logical	Tr	T	2	1	3
149	1	TrU1_1	3242	logical	Tr	U	1	1	4
149	1	TrU2_1	1123	logical	Tr	U	2	1	5
149	3	TrU1_3	938	logical	Tr	U	1	1	6
149	2	TrU2_2	825	logical	Tr	U	2	1	7
149	1	TrT2_1	697	logical	Tr	T	2	1	8
149	2	TrU1_2	645	logical	Tr	U	1	1	9
149	3	TrF1_3	1481	logical	Tr	F	1	0	10
149	2	TrT1_2	1196	logical	Tr	T	1	1	11
149	1	TrT1_1	855	logical	Tr	T	1	1	12
149	2	TrT2_2	761	logical	Tr	T	2	1	13
149	3	TrU2_3	809	logical	Tr	U	2	1	14
149	2	TrF2_2	1033	logical	Tr	F	2	0	15
149	1	TrF1_1	1271	logical	Tr	F	1	0	16
149	1	TrF2_1	986	logical	Tr	F	2	0	17
149	3	TrF2_3	800	logical	Tr	F	2	0	18
150	3	TrF1_3	2815	logical	Tr	F	1	0	1
150	2	TrU1_2	1253	logical	Tr	U	1	1	2
150	3	TrT2_3	1196	logical	Tr	T	2	1	3
