SUBJECT	ITEM	CONDITION	RT	SCALE	TYPE	RESP	TRIAL	LOAD
1	2	A2c2	690	A2	F	0	1	low
1	1	V1a1	796	V1	T	1	2	low
1	2	Q1b2	756	Q1	U	0	3	low
1	2	M2c2	986	M2	F	1	4	low
1	2	M2a2	350	M2	T	0	5	low
1	1	A1a1	718	A1	T	1	6	low
1	3	A1a3	360	A1	T	0	7	low
1	1	Q1b1	416	Q1	U	1	8	low
1	2	A1a2	374	A1	T	0	9	low
1	2	Q2a2	530	Q2	T	0	10	low
1	2	V1c2	508	V1	F	0	11	low
1	1	Q2c1	322	Q2	F	1	12	low
1	3	A1b3	384	A1	U	0	13	low
1	3	Q2c3	502	Q2	F	1	14	low
1	3	V1a3	394	V1	T	0	15	low
1	3	A2a3	540	A2	T	1	16	low
1	3	Q1a3	446	Q1	T	0	17	low
1	1	M2a1	472	M2	T	1	18	low
1	2	M2b2	416	M2	U	0	19	low
1	1	C1b1	382	C1	U	1	20	low
1	2	Q2b2	412	Q2	U	0	21	low
1	3	A1c3	410	A1	F	1	22	low
1	1	A1c1	560	A1	F	0	23	low
1	2	A1b2	450	A1	U	1	24	low
1	2	C1b2	426	C1	U	0	25	low
1	1	Q1c1	494	Q1	F	1	26	low
1	3	A2c3	494	A2	F	0	27	low
1	2	A2a2	426	A2	T	1	28	low
1	3	C1b3	434	C1	U	0	29	low
1	3	V1b3	374	V1	U	1	30	low
1	2	C1aL2	328	C1	T	0	31	low
1	1	Q1a1	388	Q1	T	1	32	low
1	3	C1c3	518	C1	F	0	33	low
1	1	A2c1	440	A2	F	1	34	low
1	1	V1c1	360	V1	F	1	35	low
1	3	Q1c3	344	Q1	F	0	36	low
1	1	C1aL1	398	C1	T	1	37	low
1	2	V1b2	426	V1	U	0	38	low
1	2	A1c2	364	A1	F	1	39	low
1	1	C1c1	356	C1	F	0	40	low
1	1	C1aR1	412	C1	T	1	41	low
1	3	Q2a3	418	Q2	T	1	42	low
1	3	M2c3	564	M2	F	0	43	low
1	2	Q2c2	420	Q2	F	1	44	low
1	1	A2a1	388	A2	T	1	45	low
1	3	A2b3	350	A2	U	0	46	low
1	1	V1b1	362	V1	U	1	47	low
1	2	C1c2	472	C1	F	0	48	low
1	1	Q2a1	298	Q2	T	1	49	low
1	3	M2a3	328	M2	T	1	50	low
1	2	A2b2	368	A2	U	1	51	low
1	2	Q1a2	502	Q1	T	1	52	low
1	1	M2b1	276	M2	U	1	53	low
1	3	M2b3	320	M2	U	0	54	low
1	1	M2c1	420	M2	F	1	55	low
1	3	Q1b3	338	Q1	U	1	56	low
1	2	V1a2	400	V1	T	1	57	low
1	3	V1c3	494	V1	F	1	58	low
1	1	A2b1	334	A2	U	1	59	low
1	1	Q2b1	430	Q2	U	1	60	low
1	1	A1b1	382	A1	U	1	61	low
1	2	Q1c2	304	Q1	F	0	62	low
1	3	Q2b3	420	Q2	U	1	63	low
2	3	M2a3	2781	M2	T	1	1	low
2	3	A2a3	1610	A2	T	1	2	low
2	1	Q2a1	1467	Q2	T	1	3	low
2	1	Q1b1	2463	Q1	U	0	4	low
2	3	A1c3	1358	A1	F	0	5	low
2	3	V1a3	2361	V1	T	1	6	low
2	1	A1c1	1172	A1	F	0	7	low
2	2	A2c2	1315	A2	F	0	8	low
2	3	A1a3	2123	A1	T	1	9	low
2	2	A2b2	2739	A2	U	0	10	low
2	1	Q1c1	1317	Q1	F	0	11	low
2	3	M2b3	1389	M2	U	1	12	low
2	3	Q1a3	1533	Q1	T	1	13	low
2	3	C1b3	2125	C1	U	0	14	low
2	2	A1a2	952	A1	T	1	15	low
2	2	Q2a2	1164	Q2	T	1	16	low
2	1	M2b1	3351	M2	U	0	17	low
2	2	V1c2	2105	V1	F	0	18	low
2	1	Q2b1	1776	Q2	U	0	19	low
2	1	C1c1	1504	C1	F	0	20	low
2	1	A1b1	1459	A1	U	0	21	low
2	1	A2c1	1284	A2	F	0	22	low
2	2	A1c2	906	A1	F	0	23	low
2	1	C1aR1	4071	C1	T	1	24	low
2	1	C1b1	1206	C1	U	0	25	low
2	3	Q2c3	1194	Q2	F	0	26	low
2	2	Q1a2	1124	Q1	T	1	27	low
2	3	Q2a3	932	Q2	T	1	28	low
2	3	V1b3	1416	V1	U	0	29	low
2	1	Q1a1	1093	Q1	T	1	30	low
2	3	Q1b3	803	Q1	U	0	31	low
2	3	A2b3	1395	A2	U	0	32	low
2	1	M2c1	2742	M2	F	0	33	low
2	2	M2b2	2186	M2	U	0	34	low
2	1	V1a1	1957	V1	T	1	35	low
2	1	Q2c1	922	Q2	F	0	36	low
2	1	V1c1	1219	V1	F	0	37	low
2	1	V1b1	1008	V1	U	0	38	low
2	2	C1aL2	1511	C1	T	1	39	low
2	1	A1a1	909	A1	T	1	40	low
2	3	Q2b3	1567	Q2	U	0	41	low
2	2	V1a2	1340	V1	T	1	42	low
2	2	Q1c2	910	Q1	F	0	43	low
2	1	M2a1	1377	M2	T	1	44	low
2	1	C1aL1	825	C1	T	1	45	low
2	2	C1b2	822	C1	U	0	46	low
2	3	M2c3	867	M2	F	0	47	low
2	2	M2a2	1046	M2	T	1	48	low
2	3	V1c3	1273	V1	F	0	49	low
2	2	Q2c2	973	Q2	F	0	50	low
2	3	C1c3	889	C1	F	0	51	low
2	3	A1b3	759	A1	U	0	52	low
2	2	C1c2	656	C1	F	0	53	low
2	2	Q1b2	755	Q1	U	0	54	low
2	2	A1b2	684	A1	U	0	55	low
2	2	A2a2	856	A2	T	1	56	low
2	2	Q2b2	1273	Q2	U	0	57	low
2	1	A2b1	718	A2	U	0	58	low
2	3	A2c3	1034	A2	F	0	59	low
2	1	A2a1	892	A2	T	1	60	low
2	2	M2c2	794	M2	F	0	61	low
2	3	Q1c3	809	Q1	F	0	62	low
2	2	V1b2	744	V1	U	0	63	low
3	2	Q2a2	2446	Q2	T	1	1	low
3	1	Q2c1	1640	Q2	F	0	2	low
3	2	A1a2	1961	A1	T	1	3	low
3	1	A1a1	1262	A1	T	1	4	low
3	1	M2c1	2195	M2	F	0	5	low
3	2	C1b2	2896	C1	U	1	6	low
3	1	C1c1	2680	C1	F	0	7	low
3	1	A1b1	1346	A1	U	1	8	low
3	3	A1a3	1039	A1	T	1	9	low
3	1	A2c1	2065	A2	F	0	10	low
3	3	Q2a3	1549	Q2	T	1	11	low
3	3	Q1b3	1864	Q1	U	1	12	low
3	3	A2b3	1922	A2	U	1	13	low
3	1	C1aR1	2056	C1	T	1	14	low
3	2	M2c2	1405	M2	F	0	15	low
3	2	M2a2	1725	M2	T	1	16	low
3	3	C1c3	1521	C1	F	0	17	low
3	1	V1a1	1858	V1	T	1	18	low
3	1	A2b1	1985	A2	U	1	19	low
3	1	A1c1	1158	A1	F	0	20	low
3	1	Q1b1	1351	Q1	U	1	21	low
3	3	Q2b3	1377	Q2	U	1	22	low
3	1	M2b1	1545	M2	U	1	23	low
3	2	A2b2	1794	A2	U	1	24	low
3	2	A2c2	1693	A2	F	0	25	low
3	1	Q2b1	1284	Q2	U	1	26	low
3	2	V1c2	1906	V1	F	0	27	low
3	2	Q2c2	2548	Q2	F	0	28	low
3	3	V1c3	2144	V1	F	0	29	low
3	1	Q2a1	1668	Q2	T	1	30	low
3	1	M2a1	1923	M2	T	1	31	low
3	2	Q1b2	2530	Q1	U	1	32	low
3	3	Q1c3	989	Q1	F	0	33	low
3	1	A2a1	1629	A2	T	0	34	low
3	3	Q1a3	3120	Q1	T	1	35	low
3	2	A2a2	2071	A2	T	1	36	low
3	3	A1b3	1080	A1	U	1	37	low
3	2	M2b2	1253	M2	U	1	38	low
3	3	Q2c3	1230	Q2	F	0	39	low
3	1	Q1a1	1038	Q1	T	1	40	low
3	1	C1aL1	1344	C1	T	1	41	low
3	2	C1aL2	1422	C1	T	1	42	low
3	2	Q1a2	1747	Q1	T	1	43	low
3	1	V1b1	2352	V1	U	1	44	low
3	2	A1c2	1060	A1	F	0	45	low
3	2	C1c2	1395	C1	F	0	46	low
3	3	C1b3	1111	C1	U	1	47	low
3	2	Q1c2	1521	Q1	F	0	48	low
3	3	M2a3	1059	M2	T	0	49	low
3	3	A2a3	2949	A2	T	1	50	low
3	3	M2b3	1555	M2	U	1	51	low
3	2	V1b2	1330	V1	U	1	52	low
3	2	Q2b2	1208	Q2	U	1	53	low
3	3	V1b3	1436	V1	U	1	54	low
3	1	Q1c1	1315	Q1	F	0	55	low
3	2	V1a2	1073	V1	T	1	56	low
3	3	M2c3	1527	M2	F	0	57	low
3	3	A1c3	1648	A1	F	0	58	low
3	1	V1c1	1984	V1	F	0	59	low
3	3	A2c3	1099	A2	F	0	60	low
3	2	A1b2	2907	A1	U	1	61	low
3	1	C1b1	1290	C1	U	0	62	low
3	3	V1a3	1409	V1	T	1	63	low
4	3	V1c3	2753	V1	F	0	1	low
4	3	Q1c3	2381	Q1	F	0	2	low
4	3	Q2a3	1945	Q2	T	1	3	low
4	2	V1b2	1847	V1	U	1	4	low
4	2	Q1a2	1450	Q1	T	1	5	low
4	3	Q1a3	2051	Q1	T	1	6	low
4	2	V1a2	3038	V1	T	1	7	low
4	1	A2b1	2950	A2	U	1	8	low
4	1	Q1b1	1848	Q1	U	1	9	low
4	1	A1c1	4172	A1	F	0	10	low
4	2	C1b2	3231	C1	U	1	11	low
4	2	M2a2	3176	M2	T	1	12	low
4	3	M2b3	2038	M2	U	1	13	low
4	3	Q1b3	3101	Q1	U	1	14	low
4	2	C1aL2	2164	C1	T	1	15	low
4	2	A2c2	1788	A2	F	0	16	low
4	3	M2a3	2135	M2	T	1	17	low
4	1	V1c1	1565	V1	F	0	18	low
4	2	A1c2	1824	A1	F	0	19	low
4	1	C1aR1	2096	C1	T	1	20	low
4	2	Q2a2	3983	Q2	T	1	21	low
4	1	A2c1	1751	A2	F	0	22	low
4	3	V1b3	1617	V1	U	1	23	low
4	2	A1a2	1690	A1	T	1	24	low
4	1	M2c1	2049	M2	F	0	25	low
4	2	M2c2	1940	M2	F	0	26	low
4	3	V1a3	4310	V1	T	1	27	low
4	1	A1b1	1915	A1	U	1	28	low
4	2	Q1c2	1817	Q1	F	0	29	low
4	3	A1b3	2333	A1	U	1	30	low
4	3	A1c3	1285	A1	F	0	31	low
4	3	A2a3	1852	A2	T	1	32	low
4	3	A2c3	1891	A2	F	0	33	low
4	2	V1c2	3044	V1	F	0	34	low
4	1	C1aL1	2070	C1	T	1	35	low
4	2	M2b2	1629	M2	U	1	36	low
4	1	A1a1	1930	A1	T	1	37	low
4	3	A2b3	3049	A2	U	1	38	low
4	1	Q2c1	4036	Q2	F	0	39	low
4	3	C1c3	1814	C1	F	0	40	low
4	1	Q1a1	2832	Q1	T	1	41	low
4	1	V1a1	2173	V1	T	1	42	low
4	2	Q2c2	2244	Q2	F	0	43	low
4	1	A2a1	2827	A2	T	1	44	low
4	3	Q2b3	1472	Q2	U	1	45	low
4	3	M2c3	3257	M2	F	0	46	low
4	2	C1c2	1662	C1	F	0	47	low
4	2	Q1b2	1565	Q1	U	1	48	low
4	2	A1b2	3980	A1	U	0	49	low
4	1	Q2b1	1423	Q2	U	1	50	low
4	1	V1b1	3474	V1	U	1	51	low
4	1	C1c1	1950	C1	F	0	52	low
4	1	Q1c1	1424	Q1	F	0	53	low
4	3	C1b3	1691	C1	U	1	54	low
4	2	A2a2	1690	A2	T	1	55	low
4	3	Q2c3	1939	Q2	F	0	56	low
4	1	Q2a1	1972	Q2	T	1	57	low
4	3	A1a3	1123	A1	T	1	58	low
4	1	C1b1	1284	C1	U	1	59	low
4	2	Q2b2	1129	Q2	U	1	60	low
4	2	A2b2	1668	A2	U	1	61	low
4	1	M2b1	1538	M2	U	1	62	low
4	1	M2a1	1758	M2	T	1	63	low
5	1	M2c1	3877	M2	F	0	1	low
5	1	M2b1	1968	M2	U	1	2	low
5	1	C1c1	2410	C1	F	0	3	low
5	3	V1c3	3878	V1	F	0	4	low
5	1	V1b1	7803	V1	U	0	5	low
5	2	M2b2	1567	M2	U	1	6	low
5	1	C1aR1	2692	C1	T	1	7	low
5	2	M2a2	3008	M2	T	1	8	low
5	3	C1b3	4300	C1	U	1	9	low
5	2	A2c2	2255	A2	F	0	10	low
5	3	A1a3	2026	A1	T	1	11	low
5	2	C1b2	1379	C1	U	1	12	low
5	3	A2b3	2393	A2	U	1	13	low
5	3	C1c3	1137	C1	F	0	14	low
5	3	M2a3	1648	M2	T	1	15	low
5	2	V1a2	1424	V1	T	1	16	low
5	3	A1c3	1531	A1	F	0	17	low
5	2	V1b2	1241	V1	U	0	18	low
5	1	V1a1	849	V1	T	1	19	low
5	2	A1c2	1217	A1	F	0	20	low
5	1	Q1b1	3959	Q1	U	0	21	low
5	3	A1b3	1424	A1	U	1	22	low
5	1	A1b1	1003	A1	U	1	23	low
5	3	Q2b3	2773	Q2	U	0	24	low
5	1	A2a1	1338	A2	T	1	25	low
5	3	Q1b3	2564	Q1	U	0	26	low
5	3	A2c3	1201	A2	F	0	27	low
5	1	C1aL1	2844	C1	T	1	28	low
5	2	Q2c2	1578	Q2	F	0	29	low
5	2	Q1a2	1531	Q1	T	1	30	low
5	2	M2c2	1162	M2	F	0	31	low
5	1	A1c1	1005	A1	F	0	32	low
5	2	Q1b2	1129	Q1	U	0	33	low
5	1	A1a1	991	A1	T	1	34	low
5	2	C1aL2	1394	C1	T	1	35	low
5	1	C1b1	1536	C1	U	0	36	low
5	2	Q1c2	1011	Q1	F	0	37	low
5	1	Q2a1	1635	Q2	T	1	38	low
5	2	C1c2	1006	C1	F	0	39	low
5	2	Q2a2	1339	Q2	T	1	40	low
5	3	M2c3	1191	M2	F	0	41	low
5	3	Q1a3	1338	Q1	T	1	42	low
5	3	V1a3	893	V1	T	1	43	low
5	3	Q1c3	843	Q1	F	0	44	low
5	3	M2b3	5844	M2	U	1	45	low
5	2	A1b2	2157	A1	U	1	46	low
5	1	A2b1	2412	A2	U	1	47	low
5	2	A2b2	1526	A2	U	1	48	low
5	3	A2a3	1051	A2	T	1	49	low
5	1	Q1c1	1187	Q1	F	0	50	low
5	2	Q2b2	1660	Q2	U	0	51	low
5	2	A2a2	953	A2	T	1	52	low
5	2	V1c2	994	V1	F	0	53	low
5	3	V1b3	926	V1	U	0	54	low
5	1	Q2b1	1339	Q2	U	0	55	low
5	3	Q2c3	1516	Q2	F	0	56	low
5	1	Q1a1	1128	Q1	T	1	57	low
5	1	V1c1	1094	V1	F	0	58	low
5	1	A2c1	1393	A2	F	0	59	low
5	3	Q2a3	1318	Q2	T	1	60	low
5	2	A1a2	1066	A1	T	1	61	low
5	1	M2a1	1279	M2	T	1	62	low
5	1	Q2c1	1073	Q2	F	0	63	low
6	2	Q2b2	3120	Q2	U	1	1	low
6	2	A2b2	3408	A2	U	1	2	low
6	2	A1b2	2977	A1	U	1	3	low
6	3	A1c3	3931	A1	F	0	4	low
6	1	M2b1	4867	M2	U	0	5	low
6	1	C1aR1	6091	C1	T	0	6	low
6	3	A1a3	2009	A1	T	1	7	low
6	1	A2b1	4387	A2	U	1	8	low
6	3	A2a3	3155	A2	T	1	9	low
6	1	V1b1	6233	V1	U	0	10	low
6	2	M2b2	3612	M2	U	0	11	low
6	2	A1c2	1755	A1	F	0	12	low
6	2	M2a2	4411	M2	T	1	13	low
6	1	C1c1	2401	C1	F	0	14	low
6	3	Q2b3	2905	Q2	U	1	15	low
6	1	A1c1	2319	A1	F	0	16	low
6	2	Q1c2	2504	Q1	F	0	17	low
6	2	Q2a2	3934	Q2	T	1	18	low
6	1	V1c1	2276	V1	F	0	19	low
6	2	Q2c2	2309	Q2	F	0	20	low
6	3	V1b3	3630	V1	U	0	21	low
6	1	Q1b1	4779	Q1	U	0	22	low
6	3	Q2c3	1956	Q2	F	0	23	low
6	3	M2a3	1681	M2	T	1	24	low
6	2	A2c2	1859	A2	F	0	25	low
6	3	A1b3	1195	A1	U	1	26	low
6	3	A2c3	1653	A2	F	0	27	low
6	2	V1a2	4413	V1	T	1	28	low
6	2	A2a2	2337	A2	T	1	29	low
6	1	Q1a1	3378	Q1	T	1	30	low
6	1	Q2b1	2018	Q2	U	1	31	low
6	1	M2c1	1936	M2	F	0	32	low
6	1	Q2c1	1493	Q2	F	0	33	low
6	1	C1b1	2555	C1	U	1	34	low
6	2	C1c2	1581	C1	F	0	35	low
6	2	Q1a2	2104	Q1	T	1	36	low
6	2	A1a2	1285	A1	T	1	37	low
6	1	A2a1	1729	A2	T	1	38	low
6	3	C1c3	1823	C1	F	0	39	low
6	1	A2c1	1543	A2	F	0	40	low
6	2	V1c2	2315	V1	F	0	41	low
6	3	C1b3	1961	C1	U	1	42	low
6	2	M2c2	1984	M2	F	0	43	low
6	1	A1a1	1387	A1	T	1	44	low
6	3	Q1b3	2391	Q1	U	0	45	low
6	3	Q2a3	2644	Q2	T	1	46	low
6	2	Q1b2	1453	Q1	U	0	47	low
6	3	Q1c3	1300	Q1	F	0	48	low
6	3	V1a3	2452	V1	T	1	49	low
6	3	V1c3	2269	V1	F	0	50	low
6	3	Q1a3	1389	Q1	T	1	51	low
6	1	A1b1	2701	A1	U	0	52	low
6	2	C1aL2	3169	C1	T	1	53	low
6	2	V1b2	1431	V1	U	0	54	low
6	1	C1aL1	4920	C1	T	1	55	low
6	1	Q1c1	1371	Q1	F	0	56	low
6	3	M2b3	2748	M2	U	0	57	low
6	1	V1a1	1634	V1	T	1	58	low
6	2	C1b2	4157	C1	U	1	59	low
6	1	Q2a1	3160	Q2	T	1	60	low
6	1	M2a1	3059	M2	T	1	61	low
6	3	A2b3	3303	A2	U	1	62	low
6	3	M2c3	1861	M2	F	0	63	low
7	3	A2a3	2264	A2	T	1	1	low
7	1	M2a1	3600	M2	T	1	2	low
7	1	A1b1	5177	A1	U	1	3	low
7	2	A2b2	4885	A2	U	1	4	low
7	2	V1b2	8632	V1	U	1	5	low
7	3	M2c3	3405	M2	F	0	6	low
7	2	Q2b2	1438	Q2	U	1	7	low
7	1	A1a1	2787	A1	T	1	8	low
7	1	Q2b1	1258	Q2	U	1	9	low
7	1	Q1c1	1451	Q1	F	1	10	low
7	1	V1b1	4705	V1	U	1	11	low
7	2	V1a2	4345	V1	T	1	12	low
7	2	Q2c2	1746	Q2	F	1	13	low
7	1	Q2a1	1496	Q2	T	1	14	low
7	3	V1c3	2234	V1	F	0	15	low
7	1	M2c1	1972	M2	F	0	16	low
7	3	Q1b3	1545	Q1	U	1	17	low
7	2	Q1a2	1865	Q1	T	1	18	low
7	3	A2b3	8808	A2	U	1	19	low
7	3	Q1a3	13673	Q1	T	1	20	low
7	1	C1c1	2127	C1	F	0	21	low
7	2	A2a2	1540	A2	T	1	22	low
7	2	A1c2	1337	A1	F	0	23	low
7	2	Q2a2	1337	Q2	T	1	24	low
7	1	Q1b1	1024	Q1	U	1	25	low
7	1	Q1a1	1762	Q1	T	1	26	low
7	2	A1a2	2576	A1	T	1	27	low
7	3	C1b3	1511	C1	U	1	28	low
7	1	V1c1	1180	V1	F	0	29	low
7	1	V1a1	1024	V1	T	1	30	low
7	2	A2c2	1240	A2	F	0	31	low
7	2	Q1b2	2143	Q1	U	1	32	low
7	3	Q2b3	1469	Q2	U	1	33	low
7	2	M2c2	2960	M2	F	0	34	low
7	3	C1c3	1414	C1	F	0	35	low
7	1	C1b1	1399	C1	U	1	36	low
7	3	Q2c3	1455	Q2	F	0	37	low
7	2	V1c2	1222	V1	F	0	38	low
7	1	C1aL1	1836	C1	T	0	39	low
7	3	A1b3	1136	A1	U	1	40	low
7	2	C1b2	1068	C1	U	1	41	low
7	1	A1c1	988	A1	F	0	42	low
7	3	V1b3	2768	V1	U	0	43	low
7	1	A2b1	2803	A2	U	0	44	low
7	3	M2a3	2132	M2	T	1	45	low
7	3	Q2a3	1150	Q2	T	1	46	low
7	1	Q2c1	1020	Q2	F	0	47	low
7	1	C1aR1	1339	C1	T	1	48	low
7	2	C1c2	1112	C1	F	0	49	low
7	1	M2b1	3108	M2	U	1	50	low
7	3	A1a3	1851	A1	T	1	51	low
7	1	A2c1	1561	A2	F	1	52	low
7	3	M2b3	959	M2	U	1	53	low
7	3	A1c3	921	A1	F	1	54	low
7	2	C1aL2	1029	C1	T	1	55	low
7	1	A2a1	963	A2	T	1	56	low
7	2	M2a2	1148	M2	T	1	57	low
7	2	A1b2	1288	A1	U	1	58	low
7	3	A2c3	1391	A2	F	0	59	low
7	3	V1a3	1567	V1	T	1	60	low
7	2	Q1c2	4768	Q1	F	0	61	low
7	3	Q1c3	2986	Q1	F	0	62	low
7	2	M2b2	1039	M2	U	1	63	low
8	1	Q1b1	4896	Q1	U	1	1	low
8	1	M2c1	2911	M2	F	0	2	low
8	3	M2b3	4058	M2	U	1	3	low
8	1	A1b1	6225	A1	U	1	4	low
8	1	C1b1	5148	C1	U	0	5	low
8	1	C1c1	4891	C1	F	0	6	low
8	2	A1b2	4504	A1	U	1	7	low
8	1	M2a1	2952	M2	T	1	8	low
8	3	A2a3	2954	A2	T	1	9	low
8	3	M2c3	1931	M2	F	0	10	low
8	2	V1b2	4936	V1	U	1	11	low
8	1	V1c1	2777	V1	F	0	12	low
8	3	Q1c3	2026	Q1	F	0	13	low
8	2	A2c2	2681	A2	F	0	14	low
8	2	Q1c2	2790	Q1	F	0	15	low
8	3	C1b3	14051	C1	U	0	16	low
8	1	M2b1	2056	M2	U	1	17	low
8	3	A1b3	1432	A1	U	1	18	low
8	3	V1b3	1760	V1	U	1	19	low
8	2	Q1a2	2482	Q1	T	1	20	low
8	2	A1c2	1359	A1	F	0	21	low
8	3	A2b3	14206	A2	U	1	22	low
8	1	Q2b1	3317	Q2	U	0	23	low
8	3	Q1b3	3207	Q1	U	0	24	low
8	1	Q2a1	2784	Q2	T	0	25	low
8	3	M2a3	2444	M2	T	1	26	low
8	2	Q1b2	2042	Q1	U	0	27	low
8	1	Q2c1	3498	Q2	F	0	28	low
8	1	Q1a1	2697	Q1	T	1	29	low
8	2	Q2c2	2988	Q2	F	0	30	low
8	2	M2a2	2642	M2	T	1	31	low
8	2	C1aL2	3904	C1	T	1	32	low
8	1	A2b1	2034	A2	U	1	33	low
8	1	A2c1	2384	A2	F	0	34	low
8	3	Q2c3	2381	Q2	F	0	35	low
8	1	C1aR1	6431	C1	T	1	36	low
8	3	A1a3	1718	A1	T	1	37	low
8	1	C1aL1	2506	C1	T	1	38	low
8	3	V1c3	2301	V1	F	0	39	low
8	3	C1c3	2258	C1	F	0	40	low
8	2	A2b2	3106	A2	U	1	41	low
8	1	V1a1	1905	V1	T	1	42	low
8	1	A2a1	2801	A2	T	1	43	low
8	3	Q1a3	2502	Q1	T	1	44	low
8	1	Q1c1	1983	Q1	F	0	45	low
8	2	A2a2	2636	A2	T	1	46	low
8	3	A2c3	2551	A2	F	0	47	low
8	3	Q2a3	2537	Q2	T	1	48	low
8	2	A1a2	1678	A1	T	1	49	low
8	3	V1a3	3664	V1	T	1	50	low
8	3	A1c3	1366	A1	F	0	51	low
8	2	Q2b2	2623	Q2	U	0	52	low
8	2	V1c2	1746	V1	F	0	53	low
8	2	C1c2	2813	C1	F	0	54	low
8	2	M2c2	2174	M2	F	0	55	low
8	2	Q2a2	2179	Q2	T	1	56	low
8	3	Q2b3	1995	Q2	U	0	57	low
8	2	M2b2	3172	M2	U	1	58	low
8	1	A1a1	2228	A1	T	1	59	low
8	2	C1b2	1947	C1	U	0	60	low
8	1	A1c1	3520	A1	F	0	61	low
8	1	V1b1	2770	V1	U	1	62	low
8	2	V1a2	4249	V1	T	1	63	low
9	2	A2c2	5116	A2	F	0	1	low
9	2	C1b2	4202	C1	U	1	2	low
9	3	Q1c3	3542	Q1	F	0	3	low
9	3	M2c3	3599	M2	F	0	4	low
9	1	V1c1	4566	V1	F	0	5	low
9	1	M2b1	3778	M2	U	1	6	low
9	3	A2a3	3250	A2	T	1	7	low
9	2	M2b2	3654	M2	U	1	8	low
9	2	A1a2	3731	A1	T	1	9	low
9	1	Q2c1	2944	Q2	F	0	10	low
9	2	A1b2	3262	A1	U	1	11	low
9	2	C1aL2	3863	C1	T	1	12	low
9	1	A1c1	3625	A1	F	0	13	low
9	3	V1a3	1967	V1	T	1	14	low
9	3	A1a3	2472	A1	T	1	15	low
9	3	C1b3	4332	C1	U	1	16	low
9	2	C1c2	3348	C1	F	0	17	low
9	2	V1a2	2674	V1	T	1	18	low
9	2	A2a2	3028	A2	T	1	19	low
9	2	Q2b2	2793	Q2	U	1	20	low
9	1	A2a1	3213	A2	T	1	21	low
9	1	V1b1	2529	V1	U	0	22	low
9	1	A2c1	3135	A2	F	0	23	low
9	1	Q2a1	2775	Q2	T	1	24	low
9	3	A1c3	2738	A1	F	0	25	low
9	3	M2a3	2340	M2	T	1	26	low
9	2	A2b2	2995	A2	U	1	27	low
9	1	A1b1	2182	A1	U	1	28	low
9	1	C1c1	2716	C1	F	0	29	low
9	2	Q1b2	4452	Q1	U	1	30	low
9	3	Q1b3	3471	Q1	U	1	31	low
9	3	C1c3	2238	C1	F	0	32	low
9	1	C1aR1	4046	C1	T	1	33	low
9	1	Q2b1	3072	Q2	U	1	34	low
9	2	M2c2	3989	M2	F	0	35	low
9	1	Q1a1	2533	Q1	T	1	36	low
9	3	Q1a3	2549	Q1	T	1	37	low
9	2	V1c2	2725	V1	F	0	38	low
9	3	M2b3	3147	M2	U	1	39	low
9	3	Q2a3	3567	Q2	T	1	40	low
9	3	Q2c3	3059	Q2	F	0	41	low
9	1	C1aL1	4335	C1	T	1	42	low
9	1	M2c1	3255	M2	F	0	43	low
9	3	V1c3	3407	V1	F	0	44	low
9	3	A1b3	2650	A1	U	1	45	low
9	2	Q2a2	2537	Q2	T	1	46	low
9	3	V1b3	2192	V1	U	0	47	low
9	1	C1b1	2461	C1	U	1	48	low
9	1	A1a1	2399	A1	T	1	49	low
9	1	A2b1	2904	A2	U	1	50	low
9	2	M2a2	3144	M2	T	1	51	low
9	3	Q2b3	3077	Q2	U	1	52	low
9	1	M2a1	3973	M2	T	1	53	low
9	3	A2b3	2330	A2	U	1	54	low
9	3	A2c3	2602	A2	F	0	55	low
9	2	A1c2	2160	A1	F	0	56	low
9	1	Q1c1	2355	Q1	F	0	57	low
9	2	Q2c2	3118	Q2	F	0	58	low
9	2	Q1a2	2305	Q1	T	1	59	low
9	1	V1a1	2064	V1	T	1	60	low
9	1	Q1b1	2247	Q1	U	1	61	low
9	2	V1b2	3637	V1	U	0	62	low
9	2	Q1c2	2616	Q1	F	0	63	low
10	3	A2a3	5124	A2	T	1	1	low
10	3	V1a3	5226	V1	T	1	2	low
10	3	A1c3	3356	A1	F	0	3	low
10	2	A1a2	5710	A1	T	1	4	low
10	2	A1b2	12756	A1	U	0	5	low
10	2	Q1c2	3308	Q1	F	0	6	low
10	3	V1b3	3378	V1	U	1	7	low
10	2	V1b2	5464	V1	U	0	8	low
10	2	M2b2	6374	M2	U	1	9	low
10	1	A1c1	3254	A1	F	0	10	low
10	2	C1c2	6548	C1	F	0	11	low
10	2	M2c2	4202	M2	F	0	12	low
10	2	M2a2	3208	M2	T	1	13	low
10	2	Q2a2	4034	Q2	T	1	14	low
10	3	C1b3	6118	C1	U	1	15	low
10	3	Q1c3	2698	Q1	F	0	16	low
10	1	A1b1	3074	A1	U	1	17	low
10	2	A1c2	2278	A1	F	0	18	low
10	1	C1aL1	5928	C1	T	0	19	low
10	1	C1b1	2744	C1	U	1	20	low
10	3	Q1b3	4984	Q1	U	0	21	low
10	2	A2a2	3522	A2	T	1	22	low
10	2	V1a2	2904	V1	T	1	23	low
10	1	Q1c1	2432	Q1	F	0	24	low
10	1	Q2b1	5108	Q2	U	1	25	low
10	3	M2c3	3740	M2	F	0	26	low
10	3	M2a3	3198	M2	T	1	27	low
10	2	Q1b2	11230	Q1	U	0	28	low
10	2	A2c2	4328	A2	F	0	29	low
10	2	Q2b2	5936	Q2	U	1	30	low
10	1	Q2a1	3504	Q2	T	1	31	low
10	1	V1a1	2478	V1	T	1	32	low
10	1	M2b1	3366	M2	U	1	33	low
10	1	M2a1	2242	M2	T	1	34	low
10	3	A2c3	4754	A2	F	0	35	low
10	2	V1c2	3052	V1	F	0	36	low
10	3	Q1a3	4234	Q1	T	1	37	low
10	3	A1b3	2892	A1	U	1	38	low
10	3	A1a3	2056	A1	T	1	39	low
10	3	Q2a3	2626	Q2	T	1	40	low
10	1	A2c1	3982	A2	F	0	41	low
10	2	C1aL2	3832	C1	T	0	42	low
10	3	Q2c3	3544	Q2	F	0	43	low
10	3	Q2b3	3400	Q2	U	1	44	low
10	1	A2b1	3410	A2	U	1	45	low
10	3	V1c3	2450	V1	F	0	46	low
10	1	C1c1	3552	C1	F	0	47	low
10	1	Q1b1	4200	Q1	U	1	48	low
10	1	Q2c1	2840	Q2	F	0	49	low
10	2	Q1a2	2428	Q1	T	1	50	low
10	1	C1aR1	5228	C1	T	1	51	low
10	1	V1c1	2046	V1	F	0	52	low
10	1	A2a1	3090	A2	T	1	53	low
10	3	C1c3	2378	C1	F	0	54	low
10	1	V1b1	3476	V1	U	0	55	low
10	3	A2b3	3422	A2	U	1	56	low
10	2	Q2c2	2534	Q2	F	0	57	low
10	3	M2b3	2260	M2	U	1	58	low
10	1	Q1a1	3316	Q1	T	1	59	low
10	2	C1b2	1820	C1	U	1	60	low
10	1	A1a1	2080	A1	T	1	61	low
10	1	M2c1	2544	M2	F	0	62	low
10	2	A2b2	2212	A2	U	1	63	low
11	2	Q2a2	1395	Q2	T	1	1	low
11	3	Q2c3	1024	Q2	F	0	2	low
11	2	A1a2	1039	A1	T	1	3	low
11	3	A1a3	807	A1	T	1	4	low
11	2	V1c2	1779	V1	F	1	5	low
11	1	C1aR1	2201	C1	T	1	6	low
11	1	A1c1	1302	A1	F	0	7	low
11	2	Q2c2	868	Q2	F	0	8	low
11	3	A2a3	1408	A2	T	1	9	low
11	2	M2a2	1833	M2	T	0	10	low
11	2	A1c2	764	A1	F	0	11	low
11	3	C1b3	944	C1	U	1	12	low
11	2	M2c2	1490	M2	F	0	13	low
11	3	Q1a3	1183	Q1	T	1	14	low
11	1	M2c1	905	M2	F	0	15	low
11	2	Q1c2	926	Q1	F	0	16	low
11	1	A2a1	1281	A2	T	1	17	low
11	1	V1b1	1262	V1	U	0	18	low
11	1	V1c1	989	V1	F	1	19	low
11	2	Q2b2	2077	Q2	U	0	20	low
11	3	M2b3	1274	M2	U	1	21	low
11	1	C1aL1	1300	C1	T	1	22	low
11	2	A2a2	806	A2	T	1	23	low
11	2	M2b2	992	M2	U	1	24	low
11	2	C1b2	7811	C1	U	1	25	low
11	3	V1c3	1010	V1	F	1	26	low
11	1	Q2a1	1307	Q2	T	1	27	low
11	1	Q2b1	711	Q2	U	1	28	low
11	1	Q1a1	1632	Q1	T	1	29	low
11	1	C1c1	848	C1	F	0	30	low
11	3	Q2a3	1033	Q2	T	1	31	low
11	1	Q2c1	1462	Q2	F	0	32	low
11	1	Q1c1	707	Q1	F	0	33	low
11	2	C1c2	722	C1	F	0	34	low
11	2	A2c2	1247	A2	F	0	35	low
11	2	Q1b2	925	Q1	U	1	36	low
11	1	C1b1	601	C1	U	1	37	low
11	3	M2a3	824	M2	T	1	38	low
11	1	A2b1	1885	A2	U	0	39	low
11	3	Q2b3	879	Q2	U	1	40	low
11	3	A2c3	1031	A2	F	0	41	low
11	1	V1a1	1503	V1	T	1	42	low
11	1	A1b1	647	A1	U	0	43	low
11	2	Q1a2	901	Q1	T	1	44	low
11	3	M2c3	1018	M2	F	0	45	low
11	1	M2a1	878	M2	T	1	46	low
11	2	V1a2	641	V1	T	1	47	low
11	1	A2c1	947	A2	F	0	48	low
11	2	A2b2	1273	A2	U	0	49	low
11	2	A1b2	682	A1	U	0	50	low
11	3	Q1b3	2046	Q1	U	0	51	low
11	3	C1c3	1392	C1	F	0	52	low
11	1	M2b1	1384	M2	U	1	53	low
11	3	A2b3	826	A2	U	0	54	low
11	3	V1a3	813	V1	T	1	55	low
11	3	V1b3	1491	V1	U	0	56	low
11	3	Q1c3	820	Q1	F	0	57	low
11	1	A1a1	748	A1	T	1	58	low
11	1	Q1b1	771	Q1	U	1	59	low
11	3	A1b3	1334	A1	U	0	60	low
11	2	C1aL2	1230	C1	T	1	61	low
11	2	V1b2	767	V1	U	0	62	low
11	3	A1c3	718	A1	F	0	63	low
12	3	Q1a3	2942	Q1	T	1	1	low
12	2	Q2c2	2047	Q2	F	0	2	low
12	3	A2a3	2922	A2	T	1	3	low
12	3	Q2b3	1959	Q2	U	1	4	low
12	1	Q1a1	2794	Q1	T	1	5	low
12	1	Q2a1	2217	Q2	T	1	6	low
12	3	A2c3	1987	A2	F	0	7	low
12	2	C1aL2	3032	C1	T	1	8	low
12	3	V1c3	4649	V1	F	0	9	low
12	2	C1b2	5101	C1	U	0	10	low
12	1	V1b1	2799	V1	U	1	11	low
12	3	Q1b3	2787	Q1	U	1	12	low
12	3	A2b3	2357	A2	U	1	13	low
12	1	Q2c1	1660	Q2	F	1	14	low
12	3	M2c3	3590	M2	F	0	15	low
12	2	A1c2	3373	A1	F	0	16	low
12	3	Q2a3	2044	Q2	T	1	17	low
12	2	Q1c2	1803	Q1	F	0	18	low
12	2	Q2a2	1878	Q2	T	1	19	low
12	1	C1c1	3641	C1	F	0	20	low
12	1	Q2b1	2099	Q2	U	1	21	low
12	2	V1b2	3672	V1	U	1	22	low
12	1	Q1b1	1629	Q1	U	1	23	low
12	2	A2c2	1711	A2	F	0	24	low
12	3	V1b3	2719	V1	U	1	25	low
12	1	V1a1	4247	V1	T	1	26	low
12	1	A2b1	3922	A2	U	1	27	low
12	2	V1c2	2276	V1	F	0	28	low
12	2	A1b2	2079	A1	U	1	29	low
12	3	Q1c3	1731	Q1	F	0	30	low
12	2	Q1b2	1426	Q1	U	1	31	low
12	3	M2b3	2367	M2	U	1	32	low
12	2	Q2b2	2394	Q2	U	1	33	low
12	1	C1aR1	2402	C1	T	1	34	low
12	2	C1c2	1953	C1	F	0	35	low
12	2	A2b2	1591	A2	U	1	36	low
12	1	C1aL1	1649	C1	T	1	37	low
12	1	A1b1	2404	A1	U	1	38	low
12	1	A1a1	2441	A1	T	1	39	low
12	1	M2a1	1877	M2	T	1	40	low
12	2	A2a2	1488	A2	T	1	41	low
12	1	C1b1	6591	C1	U	0	42	low
12	3	Q2c3	3545	Q2	F	0	43	low
12	1	V1c1	2235	V1	F	0	44	low
12	3	M2a3	1613	M2	T	1	45	low
12	1	M2c1	2969	M2	F	0	46	low
12	1	A2c1	1466	A2	F	0	47	low
12	2	A1a2	1335	A1	T	1	48	low
12	2	M2a2	2490	M2	T	1	49	low
12	3	C1c3	1599	C1	F	0	50	low
12	2	V1a2	2032	V1	T	1	51	low
12	1	Q1c1	2163	Q1	F	0	52	low
12	3	A1a3	1543	A1	T	1	53	low
12	2	M2b2	2505	M2	U	1	54	low
12	1	A2a1	2493	A2	T	1	55	low
12	2	M2c2	1662	M2	F	0	56	low
12	1	M2b1	1507	M2	U	1	57	low
12	3	C1b3	2891	C1	U	0	58	low
12	3	A1b3	2201	A1	U	1	59	low
12	3	A1c3	1729	A1	F	0	60	low
12	3	V1a3	2371	V1	T	1	61	low
12	1	A1c1	2448	A1	F	0	62	low
12	2	Q1a2	2071	Q1	T	1	63	low
13	3	A1a3	2886	A1	T	1	1	low
13	1	A1c1	2307	A1	F	0	2	low
13	2	V1a2	5915	V1	T	1	3	low
13	3	C1c3	3565	C1	F	0	4	low
13	1	C1aL1	4123	C1	T	1	5	low
13	2	Q1b2	5124	Q1	U	0	6	low
13	1	Q1b1	5487	Q1	U	0	7	low
13	1	Q1c1	3653	Q1	F	0	8	low
13	1	Q1a1	3010	Q1	T	1	9	low
13	1	C1b1	6696	C1	U	1	10	low
13	3	M2b3	6832	M2	U	0	11	low
13	2	A2a2	3634	A2	T	1	12	low
13	2	Q1c2	3174	Q1	F	0	13	low
13	2	Q2b2	6060	Q2	U	0	14	low
13	2	A2b2	2889	A2	U	1	15	low
13	3	V1c3	5388	V1	F	0	16	low
13	2	M2b2	3312	M2	U	0	17	low
13	2	M2a2	3050	M2	T	1	18	low
13	3	A2c3	3162	A2	F	0	19	low
13	1	C1aR1	4848	C1	T	1	20	low
13	2	A1a2	1939	A1	T	1	21	low
13	1	C1c1	3020	C1	F	0	22	low
13	3	M2c3	2942	M2	F	0	23	low
13	3	A2a3	2533	A2	T	1	24	low
13	3	V1b3	3707	V1	U	0	25	low
13	2	C1aL2	3259	C1	T	1	26	low
13	1	Q2a1	3727	Q2	T	1	27	low
13	2	A1b2	2834	A1	U	1	28	low
13	1	A2b1	3722	A2	U	1	29	low
13	2	Q2c2	3284	Q2	F	0	30	low
13	3	M2a3	3420	M2	T	1	31	low
13	3	Q2a3	2945	Q2	T	1	32	low
13	1	M2b1	2754	M2	U	0	33	low
13	1	M2a1	2529	M2	T	1	34	low
13	2	C1c2	2744	C1	F	0	35	low
13	3	Q1b3	2491	Q1	U	0	36	low
13	3	Q1c3	2061	Q1	F	0	37	low
13	1	V1c1	2131	V1	F	0	38	low
13	2	A1c2	2319	A1	F	0	39	low
13	3	V1a3	4279	V1	T	1	40	low
13	3	Q1a3	2328	Q1	T	1	41	low
13	2	V1b2	3650	V1	U	0	42	low
13	2	V1c2	2054	V1	F	0	43	low
13	3	A1c3	2937	A1	F	0	44	low
13	1	Q2c1	5496	Q2	F	1	45	low
13	2	M2c2	2575	M2	F	0	46	low
13	2	Q1a2	2121	Q1	T	1	47	low
13	2	C1b2	7384	C1	U	0	48	low
13	3	Q2c3	2464	Q2	F	0	49	low
13	2	A2c2	2818	A2	F	0	50	low
13	3	C1b3	2201	C1	U	0	51	low
13	1	V1a1	2163	V1	T	1	52	low
13	1	A2a1	3070	A2	T	1	53	low
13	3	Q2b3	2836	Q2	U	0	54	low
13	1	A2c1	3323	A2	F	0	55	low
13	1	V1b1	2152	V1	U	0	56	low
13	1	M2c1	1893	M2	F	0	57	low
13	1	A1a1	1488	A1	T	1	58	low
13	2	Q2a2	3009	Q2	T	1	59	low
13	1	A1b1	3415	A1	U	1	60	low
13	3	A1b3	1672	A1	U	1	61	low
13	3	A2b3	2113	A2	U	1	62	low
13	1	Q2b1	2656	Q2	U	0	63	low
14	3	C1c3	3178	C1	F	0	1	low
14	1	V1c1	5196	V1	F	0	2	low
14	2	C1b2	2885	C1	U	1	3	low
14	2	Q2b2	3524	Q2	U	1	4	low
14	1	A2b1	2699	A2	U	1	5	low
14	1	A2a1	1961	A2	T	1	6	low
14	2	A2c2	3065	A2	F	0	7	low
14	1	A1c1	6815	A1	F	0	8	low
14	3	Q2b3	7551	Q2	U	1	9	low
14	1	Q1b1	2280	Q1	U	1	10	low
14	1	A2c1	2824	A2	F	0	11	low
14	1	V1b1	2978	V1	U	1	12	low
14	1	M2b1	3636	M2	U	1	13	low
14	2	Q2c2	2685	Q2	F	0	14	low
14	1	Q1c1	2472	Q1	F	0	15	low
14	2	Q1c2	2138	Q1	F	0	16	low
14	1	C1aL1	3740	C1	T	0	17	low
14	3	M2c3	2983	M2	F	0	18	low
14	1	Q1a1	6031	Q1	T	1	19	low
14	1	C1aR1	2533	C1	T	0	20	low
14	2	M2b2	2096	M2	U	1	21	low
14	3	A1c3	1961	A1	F	0	22	low
14	1	A1a1	1834	A1	T	1	23	low
14	3	A2a3	2387	A2	T	1	24	low
14	1	V1a1	1857	V1	T	1	25	low
14	1	Q2a1	2115	Q2	T	1	26	low
14	3	A2b3	2485	A2	U	1	27	low
14	1	C1b1	1933	C1	U	1	28	low
14	1	Q2c1	2789	Q2	F	0	29	low
14	2	Q2a2	4842	Q2	T	1	30	low
14	3	M2b3	4236	M2	U	1	31	low
14	3	Q1a3	1967	Q1	T	1	32	low
14	2	Q1a2	14341	Q1	T	1	33	low
14	2	A1b2	2547	A1	U	1	34	low
14	3	A1a3	1628	A1	T	1	35	low
14	3	A1b3	1410	A1	U	1	36	low
14	2	A2b2	2994	A2	U	1	37	low
14	3	V1a3	7205	V1	T	1	38	low
14	2	Q1b2	2437	Q1	U	1	39	low
14	3	Q1b3	2480	Q1	U	1	40	low
14	2	C1aL2	2730	C1	T	0	41	low
14	3	Q2c3	2110	Q2	F	0	42	low
14	3	M2a3	2404	M2	T	1	43	low
14	2	A2a2	1802	A2	T	1	44	low
14	3	V1b3	1662	V1	U	1	45	low
14	2	A1a2	2110	A1	T	1	46	low
14	2	V1c2	1576	V1	F	1	47	low
14	1	Q2b1	1687	Q2	U	1	48	low
14	1	M2a1	1928	M2	T	1	49	low
14	2	V1b2	2741	V1	U	1	50	low
14	3	V1c3	1615	V1	F	1	51	low
14	2	M2c2	1995	M2	F	0	52	low
14	3	Q2a3	1663	Q2	T	1	53	low
14	1	M2c1	2784	M2	F	1	54	low
14	1	C1c1	2422	C1	F	1	55	low
14	1	A1b1	1859	A1	U	1	56	low
14	3	A2c3	1978	A2	F	0	57	low
14	3	C1b3	1582	C1	U	0	58	low
14	2	A1c2	1574	A1	F	0	59	low
14	2	C1c2	2526	C1	F	0	60	low
14	2	V1a2	1709	V1	T	1	61	low
14	3	Q1c3	1870	Q1	F	0	62	low
14	2	M2a2	1911	M2	T	1	63	low
15	1	C1b1	3466	C1	U	1	1	low
15	1	Q1c1	2163	Q1	F	0	2	low
15	1	C1aL1	4530	C1	T	0	3	low
15	2	C1b2	3945	C1	U	1	4	low
15	3	Q2a3	2699	Q2	T	1	5	low
15	1	V1b1	3291	V1	U	1	6	low
15	3	Q1b3	1810	Q1	U	0	7	low
15	3	C1b3	1355	C1	U	1	8	low
15	2	A2c2	2352	A2	F	0	9	low
15	2	Q1b2	1274	Q1	U	0	10	low
15	3	V1a3	1429	V1	T	1	11	low
15	2	A2b2	3218	A2	U	0	12	low
15	2	A1a2	1295	A1	T	1	13	low
15	1	Q2b1	2380	Q2	U	0	14	low
15	1	A1b1	1643	A1	U	0	15	low
15	2	V1a2	1972	V1	T	1	16	low
15	2	Q1a2	1795	Q1	T	1	17	low
15	1	C1aR1	3508	C1	T	0	18	low
15	3	M2a3	2338	M2	T	1	19	low
15	3	Q1c3	1291	Q1	F	0	20	low
15	1	A1a1	5028	A1	T	1	21	low
15	2	V1c2	1635	V1	F	0	22	low
15	1	V1c1	1899	V1	F	0	23	low
15	2	Q2c2	1945	Q2	F	0	24	low
15	1	C1c1	2467	C1	F	0	25	low
15	2	C1aL2	1539	C1	T	0	26	low
15	3	Q2b3	1652	Q2	U	0	27	low
15	3	A1b3	1268	A1	U	0	28	low
15	2	M2b2	2713	M2	U	0	29	low
15	2	A1b2	1132	A1	U	0	30	low
15	1	M2c1	1642	M2	F	0	31	low
15	3	M2b3	1507	M2	U	0	32	low
15	2	A1c2	1147	A1	F	0	33	low
15	1	A2a1	2276	A2	T	1	34	low
15	2	Q1c2	1468	Q1	F	0	35	low
15	2	V1b2	2628	V1	U	1	36	low
15	3	A2c3	1609	A2	F	0	37	low
15	1	Q2c1	1721	Q2	F	0	38	low
15	3	A2b3	1946	A2	U	0	39	low
15	2	A2a2	1595	A2	T	1	40	low
15	3	V1c3	1682	V1	F	0	41	low
15	2	M2a2	2067	M2	T	1	42	low
15	3	C1c3	2922	C1	F	0	43	low
15	1	Q1b1	1645	Q1	U	0	44	low
15	3	A2a3	2563	A2	T	1	45	low
15	1	A2c1	1708	A2	F	0	46	low
15	2	Q2b2	2380	Q2	U	0	47	low
15	2	M2c2	2371	M2	F	0	48	low
15	1	A1c1	1058	A1	F	0	49	low
15	3	A1a3	1315	A1	T	1	50	low
15	1	M2a1	1378	M2	T	1	51	low
15	3	A1c3	1116	A1	F	0	52	low
15	3	Q2c3	1171	Q2	F	0	53	low
15	1	M2b1	1579	M2	U	1	54	low
15	1	Q1a1	1721	Q1	T	1	55	low
15	1	Q2a1	2242	Q2	T	1	56	low
15	2	C1c2	2012	C1	F	0	57	low
15	2	Q2a2	2469	Q2	T	1	58	low
15	3	M2c3	2053	M2	F	0	59	low
15	3	V1b3	1380	V1	U	1	60	low
15	3	Q1a3	1700	Q1	T	1	61	low
15	1	A2b1	1769	A2	U	0	62	low
15	1	V1a1	1555	V1	T	1	63	low
16	1	Q1c1	2774	Q1	F	0	1	low
16	2	Q1c2	21471	Q1	F	0	2	low
16	2	A1c2	2263	A1	F	0	3	low
16	3	A2a3	2796	A2	T	1	4	low
16	3	Q1b3	8410	Q1	U	1	5	low
16	2	A2a2	21005	A2	T	1	6	low
16	3	M2a3	4395	M2	T	1	7	low
16	3	Q2c3	1083	Q2	F	1	8	low
16	2	Q2b2	775	Q2	U	1	9	low
16	1	C1c1	4993	C1	F	1	10	low
16	2	C1b2	5488	C1	U	0	11	low
16	1	M2c1	597	M2	F	0	12	low
16	2	A1a2	1473	A1	T	1	13	low
16	3	A1a3	1117	A1	T	1	14	low
16	1	A2a1	30955	A2	T	0	15	low
16	2	Q1a2	5282	Q1	T	1	16	low
16	3	V1a3	10936	V1	T	1	17	low
16	1	Q1b1	4027	Q1	U	1	18	low
16	3	V1b3	10325	V1	U	1	19	low
16	2	M2b2	961	M2	U	0	20	low
16	2	C1aL2	2200	C1	T	1	21	low
16	1	Q2a1	557	Q2	T	1	22	low
16	1	Q2c1	8112	Q2	F	1	23	low
16	1	A2b1	35848	A2	U	1	24	low
16	3	Q1c3	46856	Q1	F	1	25	low
16	2	C1c2	547	C1	F	1	26	low
16	3	C1b3	525	C1	U	1	27	low
16	3	A1b3	812	A1	U	1	28	low
16	3	M2c3	18925	M2	F	1	29	low
16	1	Q2b1	5385	Q2	U	1	30	low
16	3	C1c3	8849	C1	F	1	31	low
16	2	Q1b2	7984	Q1	U	1	32	low
16	1	C1b1	598	C1	U	1	33	low
16	1	V1a1	489	V1	T	1	34	low
16	1	M2a1	1261	M2	T	1	35	low
16	1	A1a1	9480	A1	T	1	36	low
16	3	V1c3	1007	V1	F	1	37	low
16	3	A1c3	611	A1	F	1	38	low
16	1	C1aR1	10061	C1	T	1	39	low
16	2	Q2c2	560	Q2	F	1	40	low
16	2	M2a2	980	M2	T	0	41	low
16	3	Q2b3	487	Q2	U	1	42	low
16	3	A2b3	579	A2	U	1	43	low
16	1	V1b1	636	V1	U	1	44	low
16	2	M2c2	106	M2	F	0	45	low
16	2	V1b2	546	V1	U	1	46	low
16	1	C1aL1	555	C1	T	1	47	low
16	2	V1c2	6345	V1	F	1	48	low
16	1	Q1a1	940	Q1	T	1	49	low
16	2	A2b2	527	A2	U	0	50	low
16	1	V1c1	504	V1	F	1	51	low
16	1	A1c1	755	A1	F	1	52	low
16	1	M2b1	481	M2	U	1	53	low
16	2	A2c2	529	A2	F	1	54	low
16	3	Q2a3	558	Q2	T	0	55	low
16	1	A2c1	488	A2	F	1	56	low
16	2	V1a2	592	V1	T	0	57	low
16	3	M2b3	372	M2	U	0	58	low
16	2	A1b2	976	A1	U	1	59	low
16	1	A1b1	614	A1	U	1	60	low
16	3	A2c3	577	A2	F	1	61	low
16	3	Q1a3	545	Q1	T	1	62	low
16	2	Q2a2	1521	Q2	T	1	63	low
17	2	Q2b2	4202	Q2	U	0	1	low
17	3	A1a3	2089	A1	T	1	2	low
17	1	M2b1	5554	M2	U	0	3	low
17	1	Q1b1	3127	Q1	U	0	4	low
17	3	C1c3	6397	C1	F	0	5	low
17	1	Q2a1	2747	Q2	T	1	6	low
17	2	Q1c2	2160	Q1	F	0	7	low
17	2	Q2a2	2457	Q2	T	1	8	low
17	1	C1aL1	4987	C1	T	1	9	low
17	3	V1c3	4098	V1	F	0	10	low
17	2	V1b2	2755	V1	U	1	11	low
17	3	A1b3	3004	A1	U	1	12	low
17	2	Q1b2	1492	Q1	U	1	13	low
17	3	Q1b3	1304	Q1	U	1	14	low
17	1	Q2b1	2948	Q2	U	1	15	low
17	1	M2a1	2346	M2	T	1	16	low
17	1	A1c1	1569	A1	F	0	17	low
17	3	Q1a3	1568	Q1	T	1	18	low
17	1	A1a1	1033	A1	T	1	19	low
17	3	M2a3	2378	M2	T	1	20	low
17	2	M2a2	1519	M2	T	1	21	low
17	3	V1b3	1207	V1	U	1	22	low
17	2	Q1a2	1184	Q1	T	1	23	low
17	2	A1a2	869	A1	T	1	24	low
17	2	A2c2	896	A2	F	1	25	low
17	1	Q1a1	1212	Q1	T	1	26	low
17	3	Q1c3	1590	Q1	F	0	27	low
17	1	A2b1	5064	A2	U	1	28	low
17	1	A2c1	1920	A2	F	0	29	low
17	2	M2b2	4441	M2	U	0	30	low
17	1	Q1c1	1813	Q1	F	0	31	low
17	1	C1b1	2697	C1	U	1	32	low
17	1	A1b1	1665	A1	U	1	33	low
17	1	Q2c1	1662	Q2	F	1	34	low
17	1	V1a1	1689	V1	T	1	35	low
17	3	A2a3	1731	A2	T	1	36	low
17	2	Q2c2	1228	Q2	F	1	37	low
17	3	V1a3	1219	V1	T	1	38	low
17	2	M2c2	1554	M2	F	0	39	low
17	2	C1b2	2457	C1	U	1	40	low
17	3	M2b3	1174	M2	U	1	41	low
17	3	A2c3	2306	A2	F	0	42	low
17	1	V1c1	1428	V1	F	0	43	low
17	1	C1c1	2424	C1	F	0	44	low
17	1	C1aR1	1952	C1	T	1	45	low
17	1	V1b1	4649	V1	U	1	46	low
17	2	A2b2	5080	A2	U	0	47	low
17	2	A2a2	1326	A2	T	1	48	low
17	3	A1c3	1025	A1	F	0	49	low
17	2	C1aL2	3642	C1	T	1	50	low
17	1	M2c1	1598	M2	F	0	51	low
17	2	A1c2	759	A1	F	0	52	low
17	2	C1c2	1740	C1	F	0	53	low
17	2	V1a2	910	V1	T	1	54	low
17	3	Q2b3	1993	Q2	U	1	55	low
17	3	Q2c3	1985	Q2	F	0	56	low
17	2	A1b2	1240	A1	U	1	57	low
17	3	Q2a3	1772	Q2	T	1	58	low
17	3	C1b3	1287	C1	U	1	59	low
17	1	A2a1	1644	A2	T	1	60	low
17	2	V1c2	1166	V1	F	0	61	low
17	3	M2c3	2540	M2	F	0	62	low
17	3	A2b3	2407	A2	U	1	63	low
18	2	M2b2	3315	M2	U	1	1	low
18	1	Q1b1	3794	Q1	U	1	2	low
18	2	V1c2	7291	V1	F	0	3	low
18	3	A2b3	10409	A2	U	0	4	low
18	2	C1aL2	6179	C1	T	1	5	low
18	1	A1b1	3169	A1	U	1	6	low
18	2	A2b2	5794	A2	U	1	7	low
18	1	Q2a1	3929	Q2	T	1	8	low
18	3	V1b3	5214	V1	U	0	9	low
18	1	Q1c1	2212	Q1	F	0	10	low
18	2	A1b2	1474	A1	U	1	11	low
18	3	A2a3	5715	A2	T	1	12	low
18	2	Q1b2	2323	Q1	U	1	13	low
18	3	C1c3	3213	C1	F	0	14	low
18	1	V1c1	6940	V1	F	0	15	low
18	3	C1b3	3768	C1	U	1	16	low
18	2	V1b2	3418	V1	U	1	17	low
18	1	Q1a1	2998	Q1	T	0	18	low
18	1	M2b1	1888	M2	U	1	19	low
18	2	C1b2	4490	C1	U	1	20	low
18	3	A1a3	2433	A1	T	1	21	low
18	1	A1a1	1452	A1	T	1	22	low
18	3	M2b3	2599	M2	U	1	23	low
18	3	V1c3	4323	V1	F	0	24	low
18	3	V1a3	2205	V1	T	1	25	low
18	2	M2c2	2542	M2	F	0	26	low
18	1	C1c1	2692	C1	F	0	27	low
18	3	Q1c3	1640	Q1	F	0	28	low
18	2	Q2a2	2977	Q2	T	1	29	low
18	1	M2a1	3054	M2	T	1	30	low
18	1	A1c1	1542	A1	F	0	31	low
18	3	A1b3	2711	A1	U	1	32	low
18	1	Q2c1	2844	Q2	F	0	33	low
18	2	M2a2	2312	M2	T	1	34	low
18	2	A2a2	2829	A2	T	1	35	low
18	3	Q2a3	4371	Q2	T	1	36	low
18	3	M2a3	2741	M2	T	1	37	low
18	1	A2a1	2310	A2	T	1	38	low
18	3	Q2c3	1990	Q2	F	0	39	low
18	1	V1b1	6318	V1	U	0	40	low
18	1	C1aL1	3683	C1	T	1	41	low
18	2	Q2c2	2957	Q2	F	0	42	low
18	2	Q1c2	1717	Q1	F	0	43	low
18	1	Q2b1	1712	Q2	U	1	44	low
18	2	Q2b2	2143	Q2	U	1	45	low
18	3	Q1b3	4410	Q1	U	0	46	low
18	2	A2c2	2396	A2	F	0	47	low
18	2	V1a2	1499	V1	T	1	48	low
18	1	A2c1	2117	A2	F	0	49	low
18	2	Q1a2	3302	Q1	T	1	50	low
18	2	A1c2	1801	A1	F	0	51	low
18	1	C1b1	5105	C1	U	0	52	low
18	1	V1a1	1528	V1	T	1	53	low
18	3	Q2b3	3008	Q2	U	1	54	low
18	3	M2c3	3076	M2	F	0	55	low
18	2	A1a2	1461	A1	T	1	56	low
18	1	M2c1	2237	M2	F	0	57	low
18	1	A2b1	3490	A2	U	0	58	low
18	3	A2c3	2150	A2	F	0	59	low
18	1	C1aR1	4595	C1	T	1	60	low
18	2	C1c2	2360	C1	F	0	61	low
18	3	Q1a3	2775	Q1	T	1	62	low
18	3	A1c3	1655	A1	F	0	63	low
19	1	V1c1	1148	V1	F	0	1	low
19	2	A2b2	1301	A2	U	0	2	low
19	1	M2b1	1616	M2	U	1	3	low
19	1	C1c1	1318	C1	F	1	4	low
19	3	A2a3	1744	A2	T	1	5	low
19	3	Q1c3	1546	Q1	F	0	6	low
19	1	A1b1	1596	A1	U	1	7	low
19	2	V1c2	1693	V1	F	0	8	low
19	1	Q1a1	1431	Q1	T	1	9	low
19	2	C1c2	2056	C1	F	1	10	low
19	1	Q2c1	1607	Q2	F	0	11	low
19	2	M2b2	1510	M2	U	1	12	low
19	1	M2a1	1364	M2	T	1	13	low
19	3	A2c3	1631	A2	F	0	14	low
19	3	M2b3	958	M2	U	1	15	low
19	2	Q2a2	1705	Q2	T	1	16	low
19	1	A2a1	1267	A2	T	1	17	low
19	1	V1a1	1245	V1	T	1	18	low
19	3	V1c3	1816	V1	F	0	19	low
19	2	Q1c2	944	Q1	F	0	20	low
19	1	A1c1	1398	A1	F	0	21	low
19	2	Q1b2	1434	Q1	U	1	22	low
19	3	A1c3	968	A1	F	0	23	low
19	3	V1a3	1007	V1	T	1	24	low
19	2	V1b2	931	V1	U	1	25	low
19	1	Q1b1	1076	Q1	U	1	26	low
19	1	A1a1	918	A1	T	1	27	low
19	3	M2c3	1324	M2	F	0	28	low
19	1	C1aR1	1440	C1	T	1	29	low
19	3	Q1b3	807	Q1	U	1	30	low
19	2	C1b2	993	C1	U	1	31	low
19	2	Q2c2	2188	Q2	F	0	32	low
19	1	Q2b1	1365	Q2	U	1	33	low
19	1	C1b1	698	C1	U	1	34	low
19	2	M2a2	1360	M2	T	1	35	low
19	2	A1c2	821	A1	F	1	36	low
19	3	C1b3	608	C1	U	1	37	low
19	2	M2c2	1187	M2	F	0	38	low
19	3	M2a3	1525	M2	T	1	39	low
19	2	Q1a2	1110	Q1	T	1	40	low
19	3	Q2a3	888	Q2	T	1	41	low
19	2	C1aL2	847	C1	T	1	42	low
19	1	Q1c1	808	Q1	F	0	43	low
19	3	A1b3	968	A1	U	1	44	low
19	2	A1b2	1523	A1	U	1	45	low
19	3	A2b3	1452	A2	U	0	46	low
19	1	A2b1	1338	A2	U	0	47	low
19	2	A1a2	1012	A1	T	1	48	low
19	1	Q2a1	1397	Q2	T	1	49	low
19	3	C1c3	911	C1	F	0	50	low
19	2	V1a2	976	V1	T	1	51	low
19	3	V1b3	1073	V1	U	1	52	low
19	2	Q2b2	878	Q2	U	1	53	low
19	3	Q1a3	1373	Q1	T	1	54	low
19	1	A2c1	1255	A2	F	1	55	low
19	3	Q2c3	1072	Q2	F	0	56	low
19	3	Q2b3	904	Q2	U	1	57	low
19	1	V1b1	983	V1	U	1	58	low
19	2	A2a2	1510	A2	T	1	59	low
19	1	M2c1	1961	M2	F	0	60	low
19	3	A1a3	1235	A1	T	1	61	low
19	1	C1aL1	1504	C1	T	1	62	low
19	2	A2c2	1221	A2	F	0	63	low
20	2	M2b2	4317	M2	U	0	1	low
20	1	Q2a1	3291	Q2	T	1	2	low
20	2	Q2a2	3372	Q2	T	1	3	low
20	3	A2c3	3729	A2	F	0	4	low
20	1	Q1a1	2873	Q1	T	1	5	low
20	2	A2b2	2824	A2	U	0	6	low
20	1	A2c1	2031	A2	F	0	7	low
20	2	A1c2	2856	A1	F	0	8	low
20	1	A2a1	1915	A2	T	1	9	low
20	1	A1c1	2286	A1	F	0	10	low
20	1	M2a1	5172	M2	T	1	11	low
20	2	Q2b2	2706	Q2	U	0	12	low
20	3	A1c3	1750	A1	F	0	13	low
20	2	A1b2	2013	A1	U	1	14	low
20	3	Q1c3	1890	Q1	F	0	15	low
20	3	A1a3	1394	A1	T	1	16	low
20	2	V1b2	3276	V1	U	0	17	low
20	3	V1b3	3935	V1	U	1	18	low
20	1	A2b1	1541	A2	U	0	19	low
20	3	M2b3	2761	M2	U	0	20	low
20	1	C1aL1	3011	C1	T	1	21	low
20	1	V1a1	1425	V1	T	1	22	low
20	3	M2a3	2674	M2	T	1	23	low
20	1	C1aR1	2142	C1	T	1	24	low
20	2	A2a2	2429	A2	T	1	25	low
20	1	Q1c1	1421	Q1	F	0	26	low
20	2	C1c2	1595	C1	F	0	27	low
20	1	M2b1	1851	M2	U	0	28	low
20	2	C1aL2	1457	C1	T	1	29	low
20	2	M2c2	1751	M2	F	0	30	low
20	1	M2c1	1159	M2	F	0	31	low
20	3	Q1a3	2595	Q1	T	1	32	low
20	1	A1b1	2421	A1	U	0	33	low
20	3	A1b3	975	A1	U	0	34	low
20	3	Q2b3	2135	Q2	U	0	35	low
20	3	C1b3	1572	C1	U	1	36	low
20	3	V1c3	1864	V1	F	0	37	low
20	1	V1c1	842	V1	F	0	38	low
20	3	Q2c3	1731	Q2	F	0	39	low
20	3	C1c3	1470	C1	F	0	40	low
20	2	Q1a2	1956	Q1	T	1	41	low
20	1	C1c1	1147	C1	F	0	42	low
20	3	Q2a3	1739	Q2	T	1	43	low
20	2	V1a2	864	V1	T	1	44	low
20	2	C1b2	1337	C1	U	1	45	low
20	2	A2c2	1654	A2	F	0	46	low
20	2	Q2c2	1353	Q2	F	0	47	low
20	2	A1a2	1143	A1	T	1	48	low
20	1	Q2b1	2761	Q2	U	0	49	low
20	1	V1b1	1205	V1	U	0	50	low
20	2	Q1b2	1606	Q1	U	0	51	low
20	1	Q1b1	1006	Q1	U	0	52	low
20	3	A2b3	69	A2	U	0	53	low
20	2	Q1c2	1201	Q1	F	0	54	low
20	2	M2a2	1319	M2	T	1	55	low
20	2	V1c2	976	V1	F	0	56	low
20	3	M2c3	1104	M2	F	0	57	low
20	1	A1a1	1170	A1	T	1	58	low
20	3	A2a3	1429	A2	T	1	59	low
20	1	Q2c1	1463	Q2	F	0	60	low
20	3	V1a3	1405	V1	T	1	61	low
20	1	C1b1	1028	C1	U	1	62	low
20	3	Q1b3	1480	Q1	U	0	63	low
21	3	Q1b3	6396	Q1	U	1	1	low
21	1	A2a1	5787	A2	T	1	2	low
21	1	Q2c1	5220	Q2	F	0	3	low
21	1	M2a1	8427	M2	T	1	4	low
21	1	A1c1	4852	A1	F	0	5	low
21	1	Q1a1	4402	Q1	T	1	6	low
21	2	A2a2	3754	A2	T	1	7	low
21	3	A2b3	6684	A2	U	0	8	low
21	2	A1b2	3539	A1	U	1	9	low
21	2	C1c2	5857	C1	F	1	10	low
21	1	Q1c1	2929	Q1	F	0	11	low
21	1	A2b1	3989	A2	U	0	12	low
21	1	C1c1	6405	C1	F	0	13	low
21	1	C1b1	7826	C1	U	0	14	low
21	2	C1b2	5134	C1	U	0	15	low
21	1	C1aL1	3506	C1	T	1	16	low
21	1	M2b1	5816	M2	U	0	17	low
21	2	M2c2	4524	M2	F	0	18	low
21	1	Q2a1	3503	Q2	T	1	19	low
21	2	V1b2	8060	V1	U	0	20	low
21	3	A2a3	3252	A2	T	1	21	low
21	3	A1a3	3481	A1	T	1	22	low
21	2	Q1a2	3479	Q1	T	1	23	low
21	1	A1b1	2987	A1	U	1	24	low
21	2	M2b2	4706	M2	U	0	25	low
21	2	V1a2	3443	V1	T	1	26	low
21	2	A2b2	3257	A2	U	0	27	low
21	1	V1c1	3400	V1	F	0	28	low
21	3	V1c3	2345	V1	F	0	29	low
21	2	Q2c2	3190	Q2	F	0	30	low
21	2	M2a2	3292	M2	T	1	31	low
21	3	C1b3	4651	C1	U	0	32	low
21	3	Q2c3	3063	Q2	F	0	33	low
21	2	Q1c2	2083	Q1	F	0	34	low
21	3	Q2b3	3134	Q2	U	0	35	low
21	2	Q2b2	2716	Q2	U	0	36	low
21	3	V1b3	2410	V1	U	0	37	low
21	3	Q1a3	3034	Q1	T	1	38	low
21	2	A2c2	2877	A2	F	0	39	low
21	2	C1aL2	2552	C1	T	1	40	low
21	3	M2b3	3778	M2	U	0	41	low
21	1	V1a1	1926	V1	T	1	42	low
21	2	A1a2	1983	A1	T	1	43	low
21	1	A2c1	2638	A2	F	0	44	low
21	3	A2c3	3405	A2	F	0	45	low
21	3	A1c3	1747	A1	F	0	46	low
21	2	V1c2	3838	V1	F	0	47	low
21	3	Q2a3	2738	Q2	T	1	48	low
21	2	Q1b2	2091	Q1	U	0	49	low
21	2	Q2a2	2528	Q2	T	1	50	low
21	3	M2c3	2707	M2	F	0	51	low
21	1	C1aR1	2028	C1	T	1	52	low
21	1	Q2b1	1958	Q2	U	0	53	low
21	3	C1c3	2220	C1	F	0	54	low
21	1	Q1b1	1997	Q1	U	0	55	low
21	3	Q1c3	1871	Q1	F	0	56	low
21	1	A1a1	1716	A1	T	1	57	low
21	3	V1a3	2063	V1	T	1	58	low
21	2	A1c2	1835	A1	F	0	59	low
21	3	A1b3	3490	A1	U	0	60	low
21	1	V1b1	2578	V1	U	0	61	low
21	3	M2a3	2664	M2	T	1	62	low
21	1	M2c1	2223	M2	F	0	63	low
22	2	A1c2	1218	A1	F	0	1	low
22	1	A1a1	1322	A1	T	0	2	low
22	1	A1c1	1593	A1	F	0	3	low
22	2	Q1a2	2091	Q1	T	1	4	low
22	2	C1aL2	2197	C1	T	1	5	low
22	1	A2a1	2279	A2	T	1	6	low
22	1	Q1a1	2233	Q1	T	1	7	low
22	2	A2a2	1794	A2	T	1	8	low
22	2	A1b2	2970	A1	U	0	9	low
22	1	V1c1	4057	V1	F	0	10	low
22	3	C1c3	2583	C1	F	0	11	low
22	3	Q1a3	1506	Q1	T	1	12	low
22	2	V1a2	1504	V1	T	1	13	low
22	1	A2b1	2345	A2	U	0	14	low
22	1	M2c1	4700	M2	F	0	15	low
22	2	Q2a2	6047	Q2	T	1	16	low
22	2	M2c2	1675	M2	F	0	17	low
22	2	Q1c2	1490	Q1	F	0	18	low
22	1	C1aL1	2203	C1	T	1	19	low
22	1	A1b1	2540	A1	U	0	20	low
22	3	V1a3	2337	V1	T	1	21	low
22	1	M2a1	5625	M2	T	1	22	low
22	3	A1c3	2048	A1	F	0	23	low
22	1	V1b1	3288	V1	U	0	24	low
22	1	Q1b1	2668	Q1	U	1	25	low
22	3	M2b3	4888	M2	U	0	26	low
22	3	C1b3	2362	C1	U	1	27	low
22	2	A2b2	1592	A2	U	0	28	low
22	2	C1c2	3838	C1	F	0	29	low
22	2	Q2c2	4821	Q2	F	1	30	low
22	1	C1b1	1281	C1	U	1	31	low
22	2	Q1b2	3083	Q1	U	1	32	low
22	2	V1c2	2316	V1	F	0	33	low
22	2	Q2b2	2914	Q2	U	0	34	low
22	1	Q1c1	1408	Q1	F	0	35	low
22	3	Q1c3	2135	Q1	F	0	36	low
22	2	V1b2	1905	V1	U	0	37	low
22	3	Q2b3	2690	Q2	U	0	38	low
22	3	A2c3	2999	A2	F	0	39	low
22	1	Q2a1	2426	Q2	T	1	40	low
22	1	Q2c1	2971	Q2	F	0	41	low
22	1	A2c1	1586	A2	F	1	42	low
22	3	A2a3	2275	A2	T	1	43	low
22	3	M2c3	1809	M2	F	0	44	low
22	3	M2a3	2684	M2	T	0	45	low
22	2	M2a2	2686	M2	T	1	46	low
22	3	Q2c3	2702	Q2	F	0	47	low
22	1	M2b1	2884	M2	U	0	48	low
22	3	V1c3	1721	V1	F	0	49	low
22	3	A2b3	1603	A2	U	0	50	low
22	2	A2c2	6962	A2	F	0	51	low
22	1	V1a1	2503	V1	T	1	52	low
22	2	A1a2	1511	A1	T	0	53	low
22	3	V1b3	2120	V1	U	0	54	low
22	1	C1aR1	1565	C1	T	0	55	low
22	2	M2b2	1367	M2	U	0	56	low
22	3	A1a3	2859	A1	T	1	57	low
22	2	C1b2	1420	C1	U	1	58	low
22	1	Q2b1	3104	Q2	U	1	59	low
22	1	C1c1	1442	C1	F	0	60	low
22	3	A1b3	1716	A1	U	1	61	low
22	3	Q1b3	2425	Q1	U	1	62	low
22	3	Q2a3	1916	Q2	T	1	63	low
23	1	Q1a1	2027	Q1	T	1	1	low
23	1	A2b1	3173	A2	U	0	2	low
23	2	M2c2	2041	M2	F	0	3	low
23	1	Q1c1	1479	Q1	F	0	4	low
23	2	Q1c2	1106	Q1	F	0	5	low
23	2	V1b2	3817	V1	U	0	6	low
23	3	C1c3	1946	C1	F	0	7	low
23	1	A1c1	1980	A1	F	0	8	low
23	3	Q1a3	1294	Q1	T	1	9	low
23	3	A2c3	2395	A2	F	0	10	low
23	1	A1b1	1432	A1	U	1	11	low
23	1	M2a1	1526	M2	T	1	12	low
23	2	A2b2	1517	A2	U	0	13	low
23	3	Q2c3	1582	Q2	F	0	14	low
23	3	M2a3	1466	M2	T	1	15	low
23	3	Q2b3	1500	Q2	U	0	16	low
23	1	C1c1	1366	C1	F	0	17	low
23	2	Q2a2	1852	Q2	T	1	18	low
23	1	C1aL1	1690	C1	T	1	19	low
23	2	A1c2	1082	A1	F	0	20	low
23	2	Q2b2	1359	Q2	U	0	21	low
23	3	A1a3	1200	A1	T	1	22	low
23	3	Q1c3	953	Q1	F	0	23	low
23	3	V1a3	2299	V1	T	1	24	low
23	3	V1c3	1976	V1	F	0	25	low
23	3	A1b3	848	A1	U	1	26	low
23	2	C1b2	6701	C1	U	0	27	low
23	3	A1c3	1109	A1	F	0	28	low
23	3	Q1b3	976	Q1	U	0	29	low
23	2	Q1b2	965	Q1	U	0	30	low
23	2	A1a2	759	A1	T	1	31	low
23	1	C1b1	1077	C1	U	0	32	low
23	2	Q1a2	1111	Q1	T	1	33	low
23	1	Q2a1	1504	Q2	T	1	34	low
23	1	M2b1	5971	M2	U	0	35	low
23	3	M2b3	1200	M2	U	0	36	low
23	1	A2a1	1377	A2	T	1	37	low
23	1	M2c1	1080	M2	F	0	38	low
23	2	A2a2	1086	A2	T	1	39	low
23	1	Q2c1	1183	Q2	F	0	40	low
23	2	V1c2	2365	V1	F	0	41	low
23	2	C1c2	975	C1	F	0	42	low
23	2	M2a2	972	M2	T	1	43	low
23	3	C1b3	794	C1	U	0	44	low
23	1	Q1b1	1051	Q1	U	0	45	low
23	3	A2b3	1340	A2	U	0	46	low
23	3	V1b3	2963	V1	U	0	47	low
23	2	V1a2	817	V1	T	1	48	low
23	1	A1a1	1000	A1	T	1	49	low
23	1	V1c1	968	V1	F	0	50	low
23	2	M2b2	927	M2	U	0	51	low
23	1	C1aR1	930	C1	T	1	52	low
23	2	Q2c2	1197	Q2	F	0	53	low
23	1	Q2b1	1023	Q2	U	0	54	low
23	3	Q2a3	1046	Q2	T	1	55	low
23	2	C1aL2	1117	C1	T	1	56	low
23	3	M2c3	897	M2	F	0	57	low
23	2	A1b2	817	A1	U	1	58	low
23	2	A2c2	1214	A2	F	0	59	low
23	1	A2c1	979	A2	F	0	60	low
23	3	A2a3	1003	A2	T	1	61	low
23	1	V1b1	1045	V1	U	0	62	low
23	1	V1a1	876	V1	T	1	63	low
24	2	M2a2	3630	M2	T	1	1	low
24	1	V1c1	4721	V1	F	1	2	low
24	2	A1a2	4046	A1	T	1	3	low
24	3	C1c3	5128	C1	F	0	4	low
24	2	M2c2	3532	M2	F	0	5	low
24	3	V1b3	2173	V1	U	1	6	low
24	2	V1a2	1852	V1	T	1	7	low
24	2	Q1c2	3204	Q1	F	0	8	low
24	3	Q2b3	2827	Q2	U	1	9	low
24	1	M2c1	2645	M2	F	0	10	low
24	1	C1b1	4293	C1	U	1	11	low
24	3	Q2a3	2553	Q2	T	1	12	low
24	3	Q1a3	2592	Q1	T	1	13	low
24	3	C1b3	6377	C1	U	1	14	low
24	3	M2a3	1926	M2	T	1	15	low
24	3	M2b3	2407	M2	U	1	16	low
24	1	A1c1	3021	A1	F	0	17	low
24	3	Q1b3	2570	Q1	U	0	18	low
24	3	V1c3	2267	V1	F	1	19	low
24	3	A2b3	6193	A2	U	1	20	low
24	2	C1b2	5623	C1	U	0	21	low
24	1	Q2a1	3293	Q2	T	1	22	low
24	3	M2c3	2363	M2	F	0	23	low
24	3	Q1c3	1839	Q1	F	0	24	low
24	2	A2a2	2283	A2	T	1	25	low
24	3	A1a3	1847	A1	T	1	26	low
24	2	V1c2	1518	V1	F	1	27	low
24	2	A1b2	3157	A1	U	1	28	low
24	3	A2a3	2149	A2	T	1	29	low
24	2	Q1a2	2161	Q1	T	1	30	low
24	1	Q1c1	1680	Q1	F	0	31	low
24	1	C1aR1	7481	C1	T	1	32	low
24	2	A2b2	2071	A2	U	0	33	low
24	2	C1aL2	2122	C1	T	1	34	low
24	3	A1b3	1723	A1	U	1	35	low
24	1	M2b1	5647	M2	U	0	36	low
24	2	A1c2	2337	A1	F	0	37	low
24	1	A1a1	1532	A1	T	1	38	low
24	3	V1a3	2211	V1	T	1	39	low
24	2	V1b2	2004	V1	U	1	40	low
24	1	Q1b1	1771	Q1	U	0	41	low
24	1	V1a1	3801	V1	T	1	42	low
24	3	Q2c3	2407	Q2	F	0	43	low
24	2	C1c2	2542	C1	F	0	44	low
24	1	V1b1	3009	V1	U	0	45	low
24	1	Q2b1	2398	Q2	U	0	46	low
24	1	Q1a1	1973	Q1	T	1	47	low
24	1	A2b1	3307	A2	U	0	48	low
24	1	C1aL1	3090	C1	T	1	49	low
24	2	Q1b2	1798	Q1	U	0	50	low
24	1	A1b1	1547	A1	U	0	51	low
24	1	C1c1	1919	C1	F	0	52	low
24	2	M2b2	2601	M2	U	0	53	low
24	1	Q2c1	2337	Q2	F	0	54	low
24	2	Q2a2	1933	Q2	T	1	55	low
24	1	A2a1	2231	A2	T	1	56	low
24	2	A2c2	2542	A2	F	0	57	low
24	1	A2c1	1969	A2	F	0	58	low
24	3	A1c3	3772	A1	F	0	59	low
24	2	Q2b2	4165	Q2	U	0	60	low
24	1	M2a1	4038	M2	T	1	61	low
24	2	Q2c2	4630	Q2	F	0	62	low
24	3	A2c3	4600	A2	F	0	63	low
25	2	A2c2	2824	A2	F	0	1	low
25	2	Q1c2	2738	Q1	F	0	2	low
25	1	Q2b1	7095	Q2	U	0	3	low
25	1	C1aR1	5042	C1	T	1	4	low
25	3	Q2c3	1882	Q2	F	0	5	low
25	1	C1c1	2690	C1	F	0	6	low
25	3	Q1c3	1915	Q1	F	0	7	low
25	3	A1a3	2930	A1	T	1	8	low
25	2	C1aL2	2548	C1	T	1	9	low
25	3	A1b3	6648	A1	U	0	10	low
25	2	Q2b2	2128	Q2	U	0	11	low
25	1	Q2c1	1901	Q2	F	0	12	low
25	1	M2c1	2976	M2	F	0	13	low
25	2	Q1a2	2065	Q1	T	1	14	low
25	1	Q1a1	3172	Q1	T	1	15	low
25	1	A2a1	2713	A2	T	1	16	low
25	3	Q1b3	1788	Q1	U	0	17	low
25	2	A1b2	1213	A1	U	0	18	low
25	1	A1c1	1568	A1	F	0	19	low
25	2	M2a2	2555	M2	T	1	20	low
25	2	M2c2	1322	M2	F	0	21	low
25	3	A2a3	1113	A2	T	1	22	low
25	1	A1b1	1075	A1	U	0	23	low
25	2	A1a2	1074	A1	T	1	24	low
25	3	V1a3	2762	V1	T	1	25	low
25	3	M2b3	3264	M2	U	0	26	low
25	2	V1b2	1915	V1	U	0	27	low
25	3	A1c3	917	A1	F	0	28	low
25	1	Q1c1	1272	Q1	F	0	29	low
25	2	Q1b2	1236	Q1	U	0	30	low
25	2	C1c2	1371	C1	F	0	31	low
25	1	C1b1	2845	C1	U	0	32	low
25	3	V1c3	1062	V1	F	0	33	low
25	2	V1c2	1139	V1	F	0	34	low
25	2	V1a2	985	V1	T	1	35	low
25	1	V1c1	1690	V1	F	0	36	low
25	3	A2c3	1625	A2	F	0	37	low
25	1	V1b1	928	V1	U	0	38	low
25	1	A1a1	852	A1	T	1	39	low
25	3	C1c3	1058	C1	F	0	40	low
25	3	V1b3	758	V1	U	0	41	low
25	1	M2b1	2932	M2	U	0	42	low
25	2	Q2a2	1842	Q2	T	1	43	low
25	1	A2c1	1508	A2	F	0	44	low
25	3	M2c3	1201	M2	F	0	45	low
25	2	Q2c2	1197	Q2	F	0	46	low
25	2	A1c2	951	A1	F	0	47	low
25	3	C1b3	1118	C1	U	0	48	low
25	2	M2b2	1049	M2	U	0	49	low
25	2	A2b2	4602	A2	U	1	50	low
25	1	Q2a1	1349	Q2	T	1	51	low
25	1	V1a1	1184	V1	T	1	52	low
25	3	Q2b3	1234	Q2	U	0	53	low
25	1	C1aL1	1624	C1	T	1	54	low
25	2	A2a2	1781	A2	T	1	55	low
25	1	M2a1	1725	M2	T	1	56	low
25	3	Q2a3	6203	Q2	T	1	57	low
25	2	C1b2	1129	C1	U	0	58	low
25	3	A2b3	2026	A2	U	1	59	low
25	1	Q1b1	1864	Q1	U	0	60	low
25	1	A2b1	1420	A2	U	1	61	low
25	3	Q1a3	1595	Q1	T	1	62	low
25	3	M2a3	1063	M2	T	1	63	low
26	3	A1b3	2723	A1	U	1	1	low
26	2	M2a2	3302	M2	T	1	2	low
26	3	A2c3	2568	A2	F	0	3	low
26	3	C1b3	2851	C1	U	1	4	low
26	2	C1aL2	3516	C1	T	0	5	low
26	3	Q2c3	1974	Q2	F	0	6	low
26	1	Q1a1	1938	Q1	T	1	7	low
26	3	M2a3	4742	M2	T	1	8	low
26	2	A2a2	1584	A2	T	1	9	low
26	3	V1a3	3191	V1	T	1	10	low
26	2	Q1c2	1438	Q1	F	0	11	low
26	3	M2b3	1537	M2	U	1	12	low
26	2	A1b2	1386	A1	U	1	13	low
26	2	Q2b2	1622	Q2	U	1	14	low
26	3	Q2a3	1681	Q2	T	1	15	low
26	1	C1aR1	3419	C1	T	0	16	low
26	2	C1c2	2108	C1	F	0	17	low
26	2	C1b2	1680	C1	U	1	18	low
26	2	M2b2	1795	M2	U	1	19	low
26	1	V1c1	1757	V1	F	0	20	low
26	2	V1b2	1917	V1	U	1	21	low
26	2	Q2a2	1500	Q2	T	1	22	low
26	3	M2c3	1657	M2	F	0	23	low
26	2	A2b2	2044	A2	U	0	24	low
26	1	A1c1	1080	A1	F	1	25	low
26	2	A2c2	1449	A2	F	0	26	low
26	2	Q2c2	1601	Q2	F	0	27	low
26	1	C1aL1	1965	C1	T	0	28	low
26	3	C1c3	1315	C1	F	0	29	low
26	2	M2c2	1309	M2	F	0	30	low
26	1	Q2b1	1791	Q2	U	1	31	low
26	1	C1b1	1339	C1	U	1	32	low
26	3	A1c3	1300	A1	F	0	33	low
26	1	M2c1	1461	M2	F	0	34	low
26	3	V1b3	3235	V1	U	1	35	low
26	3	Q1c3	1350	Q1	F	0	36	low
26	1	V1b1	3032	V1	U	1	37	low
26	2	V1a2	1658	V1	T	1	38	low
26	3	A2a3	1519	A2	T	1	39	low
26	1	A1b1	894	A1	U	1	40	low
26	3	Q1a3	1663	Q1	T	1	41	low
26	1	A2b1	4357	A2	U	1	42	low
26	3	V1c3	5794	V1	F	0	43	low
26	1	V1a1	1898	V1	T	1	44	low
26	3	Q1b3	1753	Q1	U	1	45	low
26	3	Q2b3	1406	Q2	U	1	46	low
26	1	Q2c1	1925	Q2	F	0	47	low
26	1	Q2a1	1349	Q2	T	1	48	low
26	2	V1c2	1801	V1	F	0	49	low
26	1	C1c1	2249	C1	F	0	50	low
26	3	A2b3	2992	A2	U	1	51	low
26	1	M2a1	1676	M2	T	1	52	low
26	1	Q1c1	1606	Q1	F	0	53	low
26	2	Q1a2	1547	Q1	T	1	54	low
26	1	A2a1	1442	A2	T	1	55	low
26	1	M2b1	1723	M2	U	1	56	low
26	2	A1c2	1775	A1	F	0	57	low
26	1	Q1b1	1653	Q1	U	1	58	low
26	1	A2c1	2060	A2	F	0	59	low
26	2	Q1b2	1770	Q1	U	1	60	low
26	1	A1a1	1736	A1	T	1	61	low
26	3	A1a3	1229	A1	T	1	62	low
26	2	A1a2	1110	A1	T	1	63	low
27	3	M2c3	1894	M2	F	0	1	low
27	3	V1b3	2599	V1	U	1	2	low
27	3	Q2c3	1895	Q2	F	0	3	low
27	3	M2b3	1492	M2	U	1	4	low
27	1	A1b1	3154	A1	U	0	5	low
27	2	C1c2	1588	C1	F	0	6	low
27	3	A1b3	2217	A1	U	0	7	low
27	2	C1b2	1707	C1	U	1	8	low
27	1	M2b1	1271	M2	U	1	9	low
27	3	A1c3	4161	A1	F	0	10	low
27	2	Q2b2	1416	Q2	U	1	11	low
27	2	C1aL2	2526	C1	T	0	12	low
27	1	M2a1	2093	M2	T	1	13	low
27	1	Q2c1	1524	Q2	F	0	14	low
27	2	A2a2	1893	A2	T	1	15	low
27	3	A1a3	1676	A1	T	1	16	low
27	1	Q1a1	1578	Q1	T	1	17	low
27	3	Q2a3	1675	Q2	T	1	18	low
27	1	Q1c1	1379	Q1	F	0	19	low
27	2	V1b2	2334	V1	U	1	20	low
27	3	Q2b3	1357	Q2	U	1	21	low
27	1	Q2b1	1446	Q2	U	1	22	low
27	2	V1c2	1489	V1	F	0	23	low
27	3	V1c3	1721	V1	F	0	24	low
27	1	C1c1	1183	C1	F	0	25	low
27	1	Q2a1	1739	Q2	T	1	26	low
27	3	A2a3	1430	A2	T	1	27	low
27	3	A2c3	1344	A2	F	0	28	low
27	2	A1c2	1383	A1	F	0	29	low
27	3	C1c3	1242	C1	F	0	30	low
27	2	M2b2	1670	M2	U	1	31	low
27	3	M2a3	1384	M2	T	0	32	low
27	1	Q1b1	4068	Q1	U	0	33	low
27	3	A2b3	1657	A2	U	0	34	low
27	3	Q1a3	1734	Q1	T	1	35	low
27	2	A2c2	1669	A2	F	0	36	low
27	1	A2c1	1288	A2	F	0	37	low
27	2	A2b2	1228	A2	U	0	38	low
27	2	A1b2	1469	A1	U	1	39	low
27	2	M2a2	1408	M2	T	0	40	low
27	1	V1a1	1323	V1	T	1	41	low
27	2	Q2a2	1347	Q2	T	1	42	low
27	1	V1b1	1202	V1	U	1	43	low
27	1	A1c1	1631	A1	F	0	44	low
27	1	C1aR1	1693	C1	T	1	45	low
27	1	A1a1	1167	A1	T	1	46	low
27	1	A2a1	1595	A2	T	1	47	low
27	2	Q1a2	1409	Q1	T	1	48	low
27	3	Q1b3	1363	Q1	U	0	49	low
27	3	Q1c3	1518	Q1	F	0	50	low
27	2	A1a2	1099	A1	T	1	51	low
27	2	Q2c2	1314	Q2	F	0	52	low
27	1	C1b1	1573	C1	U	1	53	low
27	2	M2c2	1590	M2	F	0	54	low
27	1	A2b1	2085	A2	U	0	55	low
27	1	V1c1	1432	V1	F	0	56	low
27	2	V1a2	1319	V1	T	1	57	low
27	1	M2c1	1299	M2	F	0	58	low
27	2	Q1b2	1370	Q1	U	1	59	low
27	3	V1a3	1098	V1	T	1	60	low
27	1	C1aL1	1341	C1	T	1	61	low
27	3	C1b3	1140	C1	U	1	62	low
27	2	Q1c2	1361	Q1	F	0	63	low
28	1	A1b1	2179	A1	U	1	1	low
28	3	M2b3	3464	M2	U	1	2	low
28	2	M2c2	3019	M2	F	0	3	low
28	2	Q2c2	2371	Q2	F	0	4	low
28	1	V1b1	3244	V1	U	0	5	low
28	2	C1b2	2789	C1	U	1	6	low
28	2	C1aL2	4778	C1	T	1	7	low
28	1	C1c1	2206	C1	F	0	8	low
28	3	A2c3	2042	A2	F	0	9	low
28	1	A2a1	1779	A2	T	1	10	low
28	1	Q1c1	1811	Q1	F	0	11	low
28	1	Q1a1	1719	Q1	T	1	12	low
28	1	A1c1	937	A1	F	0	13	low
28	1	A1a1	942	A1	T	1	14	low
28	2	V1a2	1605	V1	T	1	15	low
28	3	Q2c3	1311	Q2	F	0	16	low
28	2	A2c2	1358	A2	F	1	17	low
28	2	Q1b2	1585	Q1	U	0	18	low
28	3	Q1b3	1709	Q1	U	0	19	low
28	3	A2a3	1431	A2	T	1	20	low
28	3	A1a3	965	A1	T	1	21	low
28	1	A2c1	1229	A2	F	0	22	low
28	1	M2a1	2101	M2	T	1	23	low
28	3	A1b3	915	A1	U	1	24	low
28	2	V1b2	1845	V1	U	0	25	low
28	2	A2a2	1288	A2	T	1	26	low
28	1	C1aR1	1310	C1	T	1	27	low
28	2	Q2a2	1519	Q2	T	1	28	low
28	1	V1c1	1397	V1	F	0	29	low
28	2	A2b2	1423	A2	U	1	30	low
28	2	Q2b2	1324	Q2	U	1	31	low
28	2	Q1a2	1760	Q1	T	1	32	low
28	3	A1c3	1340	A1	F	0	33	low
28	1	C1aL1	1528	C1	T	1	34	low
28	2	C1c2	1809	C1	F	0	35	low
28	3	V1b3	1756	V1	U	0	36	low
28	1	Q2c1	1236	Q2	F	0	37	low
28	3	V1a3	1098	V1	T	1	38	low
28	2	V1c2	1130	V1	F	0	39	low
28	3	Q1a3	1114	Q1	T	1	40	low
28	1	Q2b1	998	Q2	U	1	41	low
28	1	Q1b1	1541	Q1	U	1	42	low
28	1	M2b1	1284	M2	U	1	43	low
28	3	A2b3	1345	A2	U	1	44	low
28	1	Q2a1	1589	Q2	T	1	45	low
28	3	M2c3	1171	M2	F	0	46	low
28	1	V1a1	1092	V1	T	1	47	low
28	3	Q2a3	1217	Q2	T	1	48	low
28	2	A1a2	890	A1	T	1	49	low
28	3	V1c3	1245	V1	F	0	50	low
28	3	Q1c3	1084	Q1	F	0	51	low
28	1	C1b1	1169	C1	U	1	52	low
28	2	Q1c2	1034	Q1	F	0	53	low
28	3	Q2b3	1132	Q2	U	1	54	low
28	1	A2b1	1326	A2	U	1	55	low
28	2	A1c2	948	A1	F	0	56	low
28	2	M2a2	1247	M2	T	1	57	low
28	1	M2c1	1379	M2	F	0	58	low
28	2	A1b2	733	A1	U	1	59	low
28	2	M2b2	986	M2	U	1	60	low
28	3	C1b3	934	C1	U	1	61	low
28	3	M2a3	846	M2	T	1	62	low
28	3	C1c3	862	C1	F	0	63	low
29	2	Q2c2	1541	Q2	F	0	1	low
29	1	Q1c1	2164	Q1	F	0	2	low
29	1	A1a1	1609	A1	T	1	3	low
29	3	C1c3	3446	C1	F	0	4	low
29	1	C1c1	3648	C1	F	0	5	low
29	3	V1c3	1804	V1	F	0	6	low
29	3	Q2b3	2019	Q2	U	0	7	low
29	2	C1c2	2607	C1	F	0	8	low
29	2	A1b2	6967	A1	U	1	9	low
29	3	A1a3	1115	A1	T	1	10	low
29	3	Q1b3	2125	Q1	U	0	11	low
29	3	Q2a3	2236	Q2	T	1	12	low
29	1	Q2a1	2859	Q2	T	1	13	low
29	1	A2c1	3663	A2	F	0	14	low
29	2	Q2a2	2137	Q2	T	1	15	low
29	2	A1a2	2028	A1	T	1	16	low
29	2	Q2b2	1663	Q2	U	0	17	low
29	1	C1b1	2178	C1	U	0	18	low
29	1	V1c1	1228	V1	F	0	19	low
29	2	M2b2	1767	M2	U	0	20	low
29	3	C1b3	2868	C1	U	0	21	low
29	1	A1b1	2341	A1	U	1	22	low
29	1	C1aL1	33077	C1	T	1	23	low
29	2	V1c2	1302	V1	F	0	24	low
29	2	A1c2	1765	A1	F	0	25	low
29	3	A1b3	1654	A1	U	1	26	low
29	1	M2a1	2761	M2	T	1	27	low
29	3	V1b3	1615	V1	U	1	28	low
29	2	A2c2	1472	A2	F	0	29	low
29	3	A1c3	1124	A1	F	0	30	low
29	1	V1a1	2807	V1	T	1	31	low
29	3	V1a3	3015	V1	T	1	32	low
29	3	A2c3	2276	A2	F	0	33	low
29	2	C1aL2	1891	C1	T	1	34	low
29	1	Q1b1	1598	Q1	U	0	35	low
29	3	M2b3	1490	M2	U	0	36	low
29	2	V1b2	2802	V1	U	1	37	low
29	2	Q1a2	2272	Q1	T	1	38	low
29	2	A2b2	2785	A2	U	0	39	low
29	2	M2c2	1850	M2	F	0	40	low
29	1	M2c1	1761	M2	F	0	41	low
29	2	Q1b2	1592	Q1	U	0	42	low
29	2	A2a2	1928	A2	T	1	43	low
29	1	A1c1	1370	A1	F	0	44	low
29	3	Q1c3	10956	Q1	F	0	45	low
29	3	A2b3	2728	A2	U	1	46	low
29	2	C1b2	1808	C1	U	0	47	low
29	1	A2b1	1996	A2	U	1	48	low
29	1	C1aR1	1474	C1	T	1	49	low
29	1	V1b1	2726	V1	U	1	50	low
29	3	M2c3	2126	M2	F	0	51	low
29	2	V1a2	2474	V1	T	1	52	low
29	3	Q2c3	2118	Q2	F	0	53	low
29	1	Q1a1	3787	Q1	T	1	54	low
29	1	Q2b1	2335	Q2	U	1	55	low
29	3	A2a3	1837	A2	T	1	56	low
29	3	Q1a3	1613	Q1	T	1	57	low
29	1	M2b1	1860	M2	U	0	58	low
29	1	A2a1	1710	A2	T	1	59	low
29	2	M2a2	1557	M2	T	1	60	low
29	3	M2a3	1878	M2	T	1	61	low
29	2	Q1c2	1694	Q1	F	0	62	low
29	1	Q2c1	2230	Q2	F	0	63	low
30	1	Q1b1	4164	Q1	U	0	1	low
30	3	A1a3	2711	A1	T	1	2	low
30	1	C1b1	114027	C1	U	1	3	low
30	2	A1c2	2020	A1	F	0	4	low
30	2	A2c2	3299	A2	F	0	5	low
30	1	A2a1	2813	A2	T	1	6	low
30	1	Q1c1	2699	Q1	F	0	7	low
30	2	C1c2	2590	C1	F	0	8	low
30	3	A2c3	8604	A2	F	0	9	low
30	3	M2a3	3099	M2	T	0	10	low
30	3	M2b3	4492	M2	U	1	11	low
30	3	Q2c3	2301	Q2	F	0	12	low
30	3	Q1a3	1450	Q1	T	1	13	low
30	3	V1a3	3282	V1	T	1	14	low
30	2	Q2b2	2164	Q2	U	1	15	low
30	3	Q2a3	1880	Q2	T	1	16	low
30	1	A1c1	1957	A1	F	0	17	low
30	3	A1c3	5954	A1	F	0	18	low
30	3	C1c3	2541	C1	F	0	19	low
30	2	C1aL2	2421	C1	T	1	20	low
30	1	A1b1	1707	A1	U	1	21	low
30	2	V1b2	15900	V1	U	1	22	low
30	3	V1b3	1775	V1	U	1	23	low
30	2	Q2c2	12869	Q2	F	0	24	low
30	1	V1a1	1895	V1	T	1	25	low
30	1	V1c1	2314	V1	F	0	26	low
30	1	Q1a1	5350	Q1	T	1	27	low
30	1	A1a1	1871	A1	T	1	28	low
30	1	A2b1	483889	A2	U	1	29	low
30	2	A2a2	2706	A2	T	1	30	low
30	2	M2a2	3495	M2	T	1	31	low
30	3	A2b3	2018	A2	U	1	32	low
30	2	A2b2	3829	A2	U	1	33	low
30	2	A1a2	1475	A1	T	1	34	low
30	3	Q2b3	1607	Q2	U	1	35	low
30	3	Q1b3	2203	Q1	U	0	36	low
30	1	M2b1	2333	M2	U	1	37	low
30	2	M2b2	1831	M2	U	1	38	low
30	2	Q2a2	1563	Q2	T	1	39	low
30	3	M2c3	11346	M2	F	0	40	low
30	1	Q2b1	6786	Q2	U	1	41	low
30	2	A1b2	2439	A1	U	1	42	low
30	3	V1c3	2727	V1	F	0	43	low
30	1	C1c1	3300	C1	F	0	44	low
30	1	Q2a1	7911	Q2	T	1	45	low
30	2	C1b2	4039	C1	U	1	46	low
30	2	M2c2	2532	M2	F	0	47	low
30	3	Q1c3	1961	Q1	F	0	48	low
30	1	Q2c1	41353	Q2	F	0	49	low
30	2	Q1b2	2062	Q1	U	0	50	low
30	1	A2c1	1452	A2	F	0	51	low
30	1	M2a1	1295	M2	T	1	52	low
30	3	A1b3	961	A1	U	1	53	low
30	2	V1c2	1660	V1	F	0	54	low
30	2	V1a2	8681	V1	T	1	55	low
30	1	M2c1	2142	M2	F	0	56	low
30	1	C1aR1	2946	C1	T	1	57	low
30	1	C1aL1	5265	C1	T	1	58	low
30	2	Q1c2	2953	Q1	F	0	59	low
30	1	V1b1	3892	V1	U	1	60	low
30	3	C1b3	2833	C1	U	0	61	low
30	2	Q1a2	3864	Q1	T	0	62	low
30	3	A2a3	1793	A2	T	1	63	low
31	2	A2b2	2761	A2	U	0	1	low
31	3	A2c3	2277	A2	F	0	2	low
31	3	Q1b3	1824	Q1	U	0	3	low
31	1	A1c1	1417	A1	F	0	4	low
31	1	Q2b1	2091	Q2	U	0	5	low
31	2	A1c2	1141	A1	F	0	6	low
31	1	Q1a1	2639	Q1	T	1	7	low
31	1	C1c1	2751	C1	F	0	8	low
31	1	A2a1	1456	A2	T	1	9	low
31	1	Q2c1	1504	Q2	F	0	10	low
31	2	M2a2	3548	M2	T	1	11	low
31	1	M2a1	3554	M2	T	1	12	low
31	2	Q2c2	1834	Q2	F	0	13	low
31	3	A1a3	2404	A1	T	1	14	low
31	1	C1aL1	2689	C1	T	1	15	low
31	1	M2b1	3679	M2	U	0	16	low
31	2	M2c2	1112	M2	F	0	17	low
31	3	A2b3	1793	A2	U	0	18	low
31	2	Q1a2	1833	Q1	T	1	19	low
31	3	Q2c3	1579	Q2	F	0	20	low
31	2	Q2a2	1940	Q2	T	1	21	low
31	3	M2c3	977	M2	F	0	22	low
31	2	A1b2	3481	A1	U	0	23	low
31	1	M2c1	921	M2	F	0	24	low
31	1	A2c1	1332	A2	F	0	25	low
31	3	A1c3	749	A1	F	0	26	low
31	1	C1b1	2557	C1	U	0	27	low
31	3	V1b3	3070	V1	U	0	28	low
31	1	A1a1	1137	A1	T	1	29	low
31	1	V1a1	2650	V1	T	1	30	low
31	3	Q2b3	1442	Q2	U	0	31	low
31	2	Q1c2	964	Q1	F	0	32	low
31	3	Q1a3	1123	Q1	T	1	33	low
31	1	V1c1	2203	V1	F	0	34	low
31	2	V1a2	1167	V1	T	1	35	low
31	2	Q2b2	1209	Q2	U	0	36	low
31	3	C1b3	706	C1	U	0	37	low
31	2	C1c2	813	C1	F	0	38	low
31	3	M2a3	911	M2	T	1	39	low
31	3	Q1c3	717	Q1	F	0	40	low
31	3	Q2a3	1801	Q2	T	1	41	low
31	2	V1b2	1015	V1	U	0	42	low
31	3	V1c3	920	V1	F	0	43	low
31	2	V1c2	779	V1	F	0	44	low
31	2	A1a2	810	A1	T	1	45	low
31	1	A1b1	703	A1	U	0	46	low
31	2	A2c2	1018	A2	F	0	47	low
31	2	M2b2	712	M2	U	0	48	low
31	2	C1aL2	1008	C1	T	1	49	low
31	3	A2a3	1175	A2	T	1	50	low
31	3	M2b3	720	M2	U	0	51	low
31	2	Q1b2	671	Q1	U	0	52	low
31	3	C1c3	600	C1	F	0	53	low
31	1	C1aR1	649	C1	T	1	54	low
31	3	A1b3	681	A1	U	0	55	low
31	1	Q1b1	646	Q1	U	0	56	low
31	2	A2a2	723	A2	T	1	57	low
31	3	V1a3	692	V1	T	1	58	low
31	1	Q2a1	1464	Q2	T	1	59	low
31	2	C1b2	703	C1	U	0	60	low
31	1	V1b1	790	V1	U	0	61	low
31	1	Q1c1	597	Q1	F	0	62	low
31	1	A2b1	679	A2	U	0	63	low
32	1	A1c1	3026	A1	F	0	1	low
32	2	V1c2	2876	V1	F	0	2	low
32	3	Q2b3	2430	Q2	U	1	3	low
32	2	C1b2	2480	C1	U	1	4	low
32	3	A1c3	1786	A1	F	0	5	low
32	1	V1b1	4976	V1	U	1	6	low
32	2	A2a2	2834	A2	T	1	7	low
32	2	C1c2	3008	C1	F	0	8	low
32	3	Q1b3	2140	Q1	U	0	9	low
32	2	A1a2	1528	A1	T	1	10	low
32	2	M2b2	3056	M2	U	1	11	low
32	3	Q1c3	2310	Q1	F	0	12	low
32	3	C1b3	1882	C1	U	1	13	low
32	1	A2c1	1988	A2	F	0	14	low
32	2	C1aL2	2358	C1	T	0	15	low
32	3	V1b3	2994	V1	U	1	16	low
32	3	A2b3	2340	A2	U	1	17	low
32	3	Q2c3	1762	Q2	F	0	18	low
32	1	A2b1	2012	A2	U	1	19	low
32	1	V1a1	2926	V1	T	1	20	low
32	1	A1b1	1702	A1	U	1	21	low
32	1	V1c1	1792	V1	F	0	22	low
32	3	A1a3	1906	A1	T	1	23	low
32	3	M2c3	1918	M2	F	0	24	low
32	3	M2b3	2748	M2	U	1	25	low
32	2	A2b2	2410	A2	U	0	26	low
32	1	C1aL1	1404	C1	T	1	27	low
32	2	V1b2	1694	V1	U	1	28	low
32	3	A2a3	2208	A2	T	1	29	low
32	1	M2c1	2008	M2	F	0	30	low
32	3	A2c3	1540	A2	F	0	31	low
32	2	V1a2	1882	V1	T	1	32	low
32	2	M2c2	1528	M2	F	0	33	low
32	2	Q2c2	1366	Q2	F	0	34	low
32	2	A1c2	1330	A1	F	0	35	low
32	3	V1c3	1228	V1	F	0	36	low
32	1	Q1c1	1088	Q1	F	0	37	low
32	1	M2a1	1490	M2	T	1	38	low
32	2	Q2b2	1932	Q2	U	1	39	low
32	1	A2a1	2690	A2	T	1	40	low
32	1	M2b1	2022	M2	U	1	41	low
32	3	Q2a3	1682	Q2	T	1	42	low
32	2	Q2a2	1738	Q2	T	1	43	low
32	1	Q1a1	1696	Q1	T	1	44	low
32	2	M2a2	1746	M2	T	1	45	low
32	3	Q1a3	2528	Q1	T	1	46	low
32	2	Q1b2	2000	Q1	U	1	47	low
32	1	C1aR1	4286	C1	T	0	48	low
32	1	Q2a1	2494	Q2	T	1	49	low
32	2	Q1c2	1876	Q1	F	0	50	low
32	3	M2a3	1780	M2	T	1	51	low
32	2	A2c2	1872	A2	F	0	52	low
32	1	Q1b1	2266	Q1	U	1	53	low
32	3	V1a3	3160	V1	T	1	54	low
32	3	A1b3	1854	A1	U	1	55	low
32	1	Q2c1	1664	Q2	F	0	56	low
32	1	C1b1	1746	C1	U	1	57	low
32	3	C1c3	1662	C1	F	0	58	low
32	1	C1c1	1886	C1	F	0	59	low
32	1	Q2b1	1614	Q2	U	1	60	low
32	1	A1a1	906	A1	T	1	61	low
32	2	Q1a2	1524	Q1	T	1	62	low
32	2	A1b2	1122	A1	U	1	63	low
33	1	M2c1	7336	M2	F	0	1	low
33	2	A2c2	1605	A2	F	1	2	low
33	3	Q2b3	1410	Q2	U	0	3	low
33	1	A1b1	1534	A1	U	1	4	low
33	1	Q1a1	1796	Q1	T	1	5	low
33	2	Q2b2	1092	Q2	U	1	6	low
33	2	M2a2	3103	M2	T	0	7	low
33	1	M2a1	1660	M2	T	0	8	low
33	2	Q1b2	2138	Q1	U	1	9	low
33	2	C1c2	4805	C1	F	0	10	low
33	3	V1b3	1023	V1	U	1	11	low
33	1	C1b1	1167	C1	U	1	12	low
33	3	A1c3	4657	A1	F	0	13	low
33	2	C1aL2	2315	C1	T	0	14	low
33	1	A2c1	2960	A2	F	1	15	low
33	2	C1b2	2154	C1	U	0	16	low
33	2	A1b2	32023	A1	U	1	17	low
33	1	V1a1	2027	V1	T	1	18	low
33	2	V1c2	1912	V1	F	0	19	low
33	3	C1c3	1326	C1	F	1	20	low
33	3	A1b3	937	A1	U	1	21	low
33	1	C1c1	1080	C1	F	1	22	low
33	1	A2a1	1182	A2	T	1	23	low
33	2	V1b2	1121	V1	U	0	24	low
33	2	Q2c2	1843	Q2	F	1	25	low
33	2	M2c2	1581	M2	F	0	26	low
33	1	C1aR1	1892	C1	T	1	27	low
33	3	Q1b3	1459	Q1	U	1	28	low
33	1	Q2c1	4401	Q2	F	1	29	low
33	2	Q2a2	1172	Q2	T	1	30	low
33	3	A2c3	1510	A2	F	0	31	low
33	2	Q1c2	1427	Q1	F	0	32	low
33	3	M2a3	1905	M2	T	1	33	low
33	2	A2b2	1792	A2	U	0	34	low
33	2	A2a2	2047	A2	T	0	35	low
33	3	V1a3	1418	V1	T	1	36	low
33	3	Q1c3	1694	Q1	F	0	37	low
33	3	A2b3	1867	A2	U	0	38	low
33	1	A1c1	1876	A1	F	0	39	low
33	3	M2b3	1723	M2	U	0	40	low
33	3	C1b3	1292	C1	U	0	41	low
33	2	Q1a2	29367	Q1	T	1	42	low
33	3	V1c3	1944	V1	F	0	43	low
33	3	A1a3	2036	A1	T	0	44	low
33	3	Q2c3	4140	Q2	F	0	45	low
33	2	M2b2	6387	M2	U	0	46	low
33	1	Q1c1	3454	Q1	F	0	47	low
33	1	Q1b1	4163	Q1	U	0	48	low
33	2	V1a2	2305	V1	T	0	49	low
33	1	V1c1	2182	V1	F	0	50	low
33	1	A1a1	2324	A1	T	0	51	low
33	3	M2c3	2322	M2	F	0	52	low
33	2	A1c2	2120	A1	F	0	53	low
33	2	A1a2	3952	A1	T	1	54	low
33	1	C1aL1	2012	C1	T	0	55	low
33	1	Q2b1	3007	Q2	U	0	56	low
33	1	M2b1	2436	M2	U	0	57	low
33	3	A2a3	2802	A2	T	0	58	low
33	1	V1b1	7051	V1	U	0	59	low
33	3	Q2a3	2447	Q2	T	0	60	low
33	1	A2b1	1628	A2	U	0	61	low
33	3	Q1a3	1951	Q1	T	0	62	low
33	1	Q2a1	9242	Q2	T	0	63	low
34	2	A2b2	4973	A2	U	1	1	low
34	2	A2a2	2267	A2	T	1	2	low
34	2	Q2a2	3477	Q2	T	1	3	low
34	1	Q1a1	2482	Q1	T	1	4	low
34	2	M2b2	5619	M2	U	0	5	low
34	2	Q2c2	2596	Q2	F	0	6	low
34	1	V1c1	2681	V1	F	0	7	low
34	3	M2a3	2020	M2	T	1	8	low
34	1	M2b1	4890	M2	U	0	9	low
34	2	Q1c2	1927	Q1	F	0	10	low
34	2	A1b2	3576	A1	U	1	11	low
34	2	A1a2	1458	A1	T	1	12	low
34	3	A1c3	2454	A1	F	0	13	low
34	3	Q2c3	5696	Q2	F	0	14	low
34	2	M2a2	3091	M2	T	1	15	low
34	1	Q2b1	2585	Q2	U	0	16	low
34	2	M2c2	2603	M2	F	0	17	low
34	3	A1b3	1282	A1	U	0	18	low
34	1	Q1c1	1559	Q1	F	0	19	low
34	3	M2b3	1415	M2	U	0	20	low
34	3	C1b3	4786	C1	U	0	21	low
34	2	Q2b2	2321	Q2	U	1	22	low
34	2	V1a2	1872	V1	T	1	23	low
34	1	C1b1	1521	C1	U	0	24	low
34	2	C1b2	1400	C1	U	0	25	low
34	2	V1c2	2824	V1	F	0	26	low
34	3	Q2b3	1492	Q2	U	0	27	low
34	1	C1aR1	5722	C1	T	1	28	low
34	3	V1a3	1520	V1	T	1	29	low
34	1	A1a1	1328	A1	T	1	30	low
34	1	M2a1	1666	M2	T	1	31	low
34	2	A2c2	1717	A2	F	0	32	low
34	3	A2c3	1897	A2	F	0	33	low
34	1	Q2a1	7027	Q2	T	1	34	low
34	3	Q1b3	2515	Q1	U	0	35	low
34	2	V1b2	1646	V1	U	0	36	low
34	2	C1c2	8930	C1	F	1	37	low
34	1	V1a1	1935	V1	T	1	38	low
34	1	A2a1	2084	A2	T	1	39	low
34	3	A2a3	1202	A2	T	1	40	low
34	3	Q2a3	1694	Q2	T	1	41	low
34	3	V1c3	1307	V1	F	0	42	low
34	3	C1c3	4244	C1	F	0	43	low
34	3	A2b3	1269	A2	U	0	44	low
34	1	A1b1	1226	A1	U	0	45	low
34	1	A1c1	995	A1	F	0	46	low
34	3	V1b3	1096	V1	U	0	47	low
34	2	Q1a2	1722	Q1	T	1	48	low
34	1	A2b1	1522	A2	U	0	49	low
34	1	M2c1	1863	M2	F	0	50	low
34	1	Q1b1	1680	Q1	U	0	51	low
34	1	V1b1	1021	V1	U	0	52	low
34	2	C1aL2	1598	C1	T	1	53	low
34	1	C1aL1	1169	C1	T	1	54	low
34	2	A1c2	1349	A1	F	0	55	low
34	1	Q2c1	2577	Q2	F	0	56	low
34	1	C1c1	1996	C1	F	0	57	low
34	2	Q1b2	1732	Q1	U	0	58	low
34	3	Q1a3	997	Q1	T	1	59	low
34	3	A1a3	2419	A1	T	1	60	low
34	3	M2c3	1576	M2	F	0	61	low
34	1	A2c1	2236	A2	F	0	62	low
34	3	Q1c3	1172	Q1	F	0	63	low
35	1	C1aL1	4457	C1	T	1	1	low
35	1	C1b1	2421	C1	U	1	2	low
35	1	C1aR1	3513	C1	T	1	3	low
35	3	Q1a3	4753	Q1	T	1	4	low
35	3	V1c3	4368	V1	F	0	5	low
35	3	Q1c3	2864	Q1	F	0	6	low
35	1	A1c1	3645	A1	F	0	7	low
35	1	M2c1	4273	M2	F	0	8	low
35	3	V1a3	2750	V1	T	1	9	low
35	3	A1a3	2096	A1	T	1	10	low
35	1	V1a1	4042	V1	T	1	11	low
35	2	A2c2	4304	A2	F	0	12	low
35	3	M2c3	2986	M2	F	0	13	low
35	1	V1b1	3154	V1	U	1	14	low
35	2	V1b2	2182	V1	U	1	15	low
35	2	V1a2	2522	V1	T	1	16	low
35	2	A2a2	2610	A2	T	1	17	low
35	3	V1b3	2048	V1	U	1	18	low
35	1	Q2c1	3168	Q2	F	0	19	low
35	3	C1b3	2258	C1	U	1	20	low
35	1	M2a1	2478	M2	T	1	21	low
35	1	A1b1	2625	A1	U	1	22	low
35	3	M2b3	2656	M2	U	1	23	low
35	2	M2a2	2361	M2	T	1	24	low
35	2	C1c2	2375	C1	F	0	25	low
35	2	V1c2	2516	V1	F	0	26	low
35	3	M2a3	2575	M2	T	1	27	low
35	3	C1c3	2977	C1	F	0	28	low
35	2	Q2b2	3144	Q2	U	1	29	low
35	1	Q1b1	2252	Q1	U	1	30	low
35	1	C1c1	2290	C1	F	0	31	low
35	2	A1c2	1857	A1	F	0	32	low
35	3	A2c3	3529	A2	F	0	33	low
35	1	A2b1	2844	A2	U	1	34	low
35	2	M2b2	2489	M2	U	1	35	low
35	2	C1aL2	1877	C1	T	1	36	low
35	3	A2b3	2250	A2	U	1	37	low
35	3	A1c3	2190	A1	F	0	38	low
35	3	Q2b3	2444	Q2	U	1	39	low
35	2	C1b2	2068	C1	U	1	40	low
35	1	Q1c1	2345	Q1	F	0	41	low
35	2	Q2c2	2977	Q2	F	0	42	low
35	1	A1a1	3172	A1	T	1	43	low
35	2	A1a2	3914	A1	T	1	44	low
35	2	Q1a2	2581	Q1	T	1	45	low
35	3	Q1b3	2197	Q1	U	1	46	low
35	1	A2a1	2649	A2	T	0	47	low
35	2	Q2a2	4266	Q2	T	1	48	low
35	2	M2c2	2284	M2	F	0	49	low
35	3	A1b3	2625	A1	U	1	50	low
35	1	Q2b1	1984	Q2	U	1	51	low
35	1	Q1a1	2462	Q1	T	1	52	low
35	1	M2b1	2236	M2	U	1	53	low
35	2	A1b2	1963	A1	U	1	54	low
35	1	Q2a1	4416	Q2	T	1	55	low
35	1	V1c1	3456	V1	F	0	56	low
35	2	Q1b2	2015	Q1	U	1	57	low
35	3	Q2a3	3652	Q2	T	1	58	low
35	3	A2a3	3272	A2	T	1	59	low
35	2	A2b2	2524	A2	U	1	60	low
35	1	A2c1	2517	A2	F	0	61	low
35	2	Q1c2	2407	Q1	F	0	62	low
35	3	Q2c3	2642	Q2	F	0	63	low
36	2	A2a2	1980	A2	T	1	1	low
36	2	M2b2	2666	M2	U	1	2	low
36	2	A1b2	2995	A1	U	1	3	low
36	2	Q1b2	3413	Q1	U	1	4	low
36	2	A1c2	1516	A1	F	0	5	low
36	3	A2c3	2106	A2	F	0	6	low
36	3	V1a3	2421	V1	T	1	7	low
36	1	Q2c1	1987	Q2	F	0	8	low
36	1	Q1a1	2189	Q1	T	1	9	low
36	1	A2a1	2104	A2	T	1	10	low
36	3	V1b3	2244	V1	U	0	11	low
36	1	C1aL1	4078	C1	T	1	12	low
36	3	Q2b3	1946	Q2	U	1	13	low
36	3	M2a3	2827	M2	T	1	14	low
36	3	M2b3	1575	M2	U	1	15	low
36	1	C1b1	1986	C1	U	1	16	low
36	3	M2c3	2436	M2	F	0	17	low
36	3	A1a3	2874	A1	T	1	18	low
36	1	Q1c1	1622	Q1	F	0	19	low
36	1	M2c1	2483	M2	F	0	20	low
36	2	A2b2	2313	A2	U	1	21	low
36	1	Q2a1	2321	Q2	T	1	22	low
36	1	V1c1	2459	V1	F	0	23	low
36	2	M2c2	1238	M2	F	0	24	low
36	1	A1b1	1150	A1	U	0	25	low
36	3	Q1b3	1956	Q1	U	0	26	low
36	3	A1c3	1441	A1	F	0	27	low
36	3	C1b3	2230	C1	U	1	28	low
36	1	V1b1	1669	V1	U	0	29	low
36	1	A2b1	1801	A2	U	1	30	low
36	2	M2a2	1553	M2	T	1	31	low
36	1	Q1b1	2128	Q1	U	1	32	low
36	1	A1c1	1211	A1	F	0	33	low
36	2	Q2b2	1515	Q2	U	1	34	low
36	3	C1c3	1854	C1	F	0	35	low
36	3	Q1c3	1728	Q1	F	0	36	low
36	2	C1b2	1631	C1	U	1	37	low
36	3	A1b3	1088	A1	U	0	38	low
36	2	V1b2	1326	V1	U	1	39	low
36	1	Q2b1	1406	Q2	U	1	40	low
36	2	A2c2	1650	A2	F	0	41	low
36	2	Q2a2	1681	Q2	T	1	42	low
36	1	V1a1	1374	V1	T	1	43	low
36	3	A2b3	1326	A2	U	0	44	low
36	2	Q1a2	1743	Q1	T	1	45	low
36	3	Q1a3	1641	Q1	T	1	46	low
36	1	C1c1	3485	C1	F	0	47	low
36	3	V1c3	5032	V1	F	0	48	low
36	2	V1a2	1583	V1	T	1	49	low
36	2	Q1c2	1066	Q1	F	0	50	low
36	2	C1aL2	3589	C1	T	1	51	low
36	2	Q2c2	1662	Q2	F	0	52	low
36	3	A2a3	1419	A2	T	1	53	low
36	1	M2b1	1405	M2	U	1	54	low
36	1	M2a1	1808	M2	T	1	55	low
36	3	Q2a3	1469	Q2	T	0	56	low
36	1	C1aR1	5396	C1	T	1	57	low
36	2	C1c2	1480	C1	F	0	58	low
36	2	V1c2	1578	V1	F	0	59	low
36	1	A2c1	1713	A2	F	0	60	low
36	1	A1a1	1576	A1	T	1	61	low
36	3	Q2c3	1412	Q2	F	0	62	low
36	2	A1a2	1532	A1	T	1	63	low
37	2	A2c2	2947	A2	F	0	1	low
37	3	C1b3	6391	C1	U	1	2	low
37	1	A2b1	3024	A2	U	1	3	low
37	3	Q1b3	3161	Q1	U	0	4	low
37	3	M2c3	2814	M2	F	0	5	low
37	1	Q2c1	2048	Q2	F	0	6	low
37	1	C1aR1	2333	C1	T	1	7	low
37	2	M2b2	4552	M2	U	1	8	low
37	3	Q1c3	2029	Q1	F	0	9	low
37	2	C1aL2	1891	C1	T	1	10	low
37	2	M2a2	1900	M2	T	1	11	low
37	2	Q1c2	1662	Q1	F	0	12	low
37	3	V1b3	3477	V1	U	1	13	low
37	3	A2b3	1922	A2	U	1	14	low
37	2	Q2b2	2405	Q2	U	0	15	low
37	2	A2a2	1683	A2	T	1	16	low
37	3	V1c3	2351	V1	F	0	17	low
37	1	A2c1	1625	A2	F	0	18	low
37	1	V1a1	1930	V1	T	1	19	low
37	3	A2a3	1255	A2	T	1	20	low
37	3	C1c3	1569	C1	F	0	21	low
37	2	Q2a2	1501	Q2	T	1	22	low
37	3	A1c3	1686	A1	F	0	23	low
37	2	V1c2	1553	V1	F	0	24	low
37	1	V1c1	1384	V1	F	0	25	low
37	2	A1b2	1517	A1	U	1	26	low
37	1	Q1b1	1443	Q1	U	0	27	low
37	1	Q2b1	2196	Q2	U	0	28	low
37	1	C1c1	1716	C1	F	0	29	low
37	3	A2c3	1582	A2	F	0	30	low
37	1	C1aL1	2568	C1	T	1	31	low
37	1	A1a1	1311	A1	T	1	32	low
37	2	A2b2	1302	A2	U	1	33	low
37	2	Q1a2	31789	Q1	T	1	34	low
37	3	V1a3	941	V1	T	1	35	low
37	1	Q1c1	1219	Q1	F	0	36	low
37	2	V1a2	868	V1	T	1	37	low
37	1	A1c1	1233	A1	F	0	38	low
37	1	Q1a1	989	Q1	T	1	39	low
37	1	Q2a1	1319	Q2	T	1	40	low
37	1	V1b1	1769	V1	U	1	41	low
37	2	A1a2	707	A1	T	1	42	low
37	3	Q2c3	1195	Q2	F	0	43	low
37	1	C1b1	1927	C1	U	0	44	low
37	3	A1a3	684	A1	T	1	45	low
37	3	Q1a3	1253	Q1	T	1	46	low
37	1	M2b1	1048	M2	U	1	47	low
37	2	A1c2	824	A1	F	0	48	low
37	3	M2a3	926	M2	T	1	49	low
37	2	Q1b2	1312	Q1	U	0	50	low
37	2	Q2c2	1223	Q2	F	0	51	low
37	3	M2b3	1896	M2	U	0	52	low
37	2	V1b2	1371	V1	U	1	53	low
37	2	C1c2	1248	C1	F	0	54	low
37	1	M2c1	1034	M2	F	0	55	low
37	1	A2a1	1311	A2	T	1	56	low
37	3	Q2b3	1331	Q2	U	0	57	low
37	1	M2a1	816	M2	T	1	58	low
37	2	C1b2	1194	C1	U	0	59	low
37	3	A1b3	834	A1	U	1	60	low
37	2	M2c2	836	M2	F	0	61	low
37	1	A1b1	756	A1	U	1	62	low
37	3	Q2a3	1004	Q2	T	1	63	low
38	3	Q1c3	1698	Q1	F	0	1	low
38	2	V1c2	1179	V1	F	0	2	low
38	2	A2b2	1245	A2	U	1	3	low
38	3	M2c3	1166	M2	F	0	4	low
38	1	Q1c1	1558	Q1	F	0	5	low
38	3	A1c3	993	A1	F	0	6	low
38	3	A1b3	2997	A1	U	0	7	low
38	1	V1a1	982	V1	T	1	8	low
38	1	A1c1	965	A1	F	0	9	low
38	1	A1b1	1103	A1	U	0	10	low
38	3	C1b3	1631	C1	U	1	11	low
38	3	Q2b3	1373	Q2	U	0	12	low
38	2	V1b2	1133	V1	U	0	13	low
38	1	A2b1	1089	A2	U	1	14	low
38	1	A2c1	1557	A2	F	0	15	low
38	2	C1b2	8977	C1	U	0	16	low
38	1	M2c1	950	M2	F	0	17	low
38	2	C1aL2	1887	C1	T	1	18	low
38	1	Q1b1	1680	Q1	U	0	19	low
38	2	A1b2	1081	A1	U	0	20	low
38	1	A1a1	887	A1	T	1	21	low
38	3	V1a3	924	V1	T	1	22	low
38	2	Q1a2	988	Q1	T	1	23	low
38	3	A1a3	862	A1	T	1	24	low
38	2	M2a2	855	M2	T	1	25	low
38	3	M2b3	2355	M2	U	0	26	low
38	3	V1b3	863	V1	U	0	27	low
38	3	A2b3	1270	A2	U	1	28	low
38	1	V1b1	882	V1	U	0	29	low
38	2	Q1b2	976	Q1	U	0	30	low
38	2	Q2b2	1485	Q2	U	0	31	low
38	1	A2a1	947	A2	T	1	32	low
38	1	V1c1	925	V1	F	0	33	low
38	2	A2c2	1327	A2	F	0	34	low
38	3	Q1a3	1272	Q1	T	1	35	low
38	2	A2a2	1127	A2	T	1	36	low
38	2	C1c2	946	C1	F	0	37	low
38	1	C1c1	2206	C1	F	0	38	low
38	1	C1aR1	1971	C1	T	1	39	low
38	1	C1b1	1490	C1	U	0	40	low
38	1	Q1a1	1844	Q1	T	1	41	low
38	3	C1c3	1286	C1	F	0	42	low
38	3	Q2c3	1347	Q2	F	0	43	low
38	2	A1a2	904	A1	T	1	44	low
38	2	A1c2	836	A1	F	0	45	low
38	2	Q2c2	936	Q2	F	0	46	low
38	1	C1aL1	4968	C1	T	1	47	low
38	2	M2b2	1251	M2	U	0	48	low
38	1	Q2b1	1357	Q2	U	0	49	low
38	3	Q1b3	1337	Q1	U	0	50	low
38	3	M2a3	970	M2	T	1	51	low
38	1	M2b1	866	M2	U	0	52	low
38	3	A2a3	900	A2	T	1	53	low
38	2	V1a2	779	V1	T	1	54	low
38	2	Q2a2	1432	Q2	T	1	55	low
38	1	M2a1	795	M2	T	1	56	low
38	1	Q2c1	871	Q2	F	0	57	low
38	2	M2c2	2191	M2	F	0	58	low
38	1	Q2a1	1025	Q2	T	1	59	low
38	3	Q2a3	815	Q2	T	1	60	low
38	3	V1c3	953	V1	F	0	61	low
38	2	Q1c2	1211	Q1	F	0	62	low
38	3	A2c3	1022	A2	F	0	63	low
39	3	A1a3	4038	A1	T	1	1	low
39	2	A2c2	4586	A2	F	0	2	low
39	2	C1b2	3382	C1	U	0	3	low
39	3	C1b3	2185	C1	U	0	4	low
39	1	C1aL1	3942	C1	T	1	5	low
39	1	C1c1	2435	C1	F	0	6	low
39	1	M2b1	6941	M2	U	0	7	low
39	1	V1a1	4625	V1	T	1	8	low
39	1	Q2c1	2061	Q2	F	0	9	low
39	3	M2b3	1684	M2	U	0	10	low
39	2	Q1b2	4834	Q1	U	0	11	low
39	3	Q1b3	1622	Q1	U	0	12	low
39	3	A2c3	1701	A2	F	0	13	low
39	3	A2a3	1825	A2	T	1	14	low
39	3	A1b3	1895	A1	U	1	15	low
39	1	V1c1	1688	V1	F	1	16	low
39	1	M2a1	2347	M2	T	1	17	low
39	1	Q1a1	1382	Q1	T	1	18	low
39	1	A2a1	2014	A2	T	1	19	low
39	1	A2b1	2030	A2	U	1	20	low
39	2	A1b2	1093	A1	U	1	21	low
39	3	Q2b3	1264	Q2	U	1	22	low
39	1	Q2a1	1529	Q2	T	1	23	low
39	2	V1b2	1907	V1	U	0	24	low
39	2	Q1c2	1514	Q1	F	0	25	low
39	1	Q2b1	902	Q2	U	1	26	low
39	2	Q2a2	998	Q2	T	1	27	low
39	2	A2b2	1714	A2	U	0	28	low
39	3	Q2c3	1725	Q2	F	0	29	low
39	2	M2b2	1753	M2	U	0	30	low
39	3	M2a3	1017	M2	T	1	31	low
39	2	Q1a2	1498	Q1	T	1	32	low
39	2	A1c2	1033	A1	F	0	33	low
39	2	C1c2	2559	C1	F	0	34	low
39	3	Q1c3	1430	Q1	F	0	35	low
39	2	M2c2	1442	M2	F	0	36	low
39	3	A1c3	2875	A1	F	0	37	low
39	1	V1b1	2599	V1	U	0	38	low
39	1	A2c1	1934	A2	F	0	39	low
39	3	V1c3	1301	V1	F	0	40	low
39	2	V1a2	1306	V1	T	1	41	low
39	2	Q2b2	1735	Q2	U	1	42	low
39	3	V1b3	1173	V1	U	0	43	low
39	1	M2c1	1149	M2	F	0	44	low
39	1	A1c1	1191	A1	F	0	45	low
39	2	M2a2	1103	M2	T	1	46	low
39	1	Q1b1	1633	Q1	U	1	47	low
39	3	C1c3	767	C1	F	0	48	low
39	1	Q1c1	1394	Q1	F	0	49	low
39	2	A1a2	1072	A1	T	1	50	low
39	1	A1b1	717	A1	U	0	51	low
39	3	A2b3	1695	A2	U	0	52	low
39	3	V1a3	1201	V1	T	1	53	low
39	2	Q2c2	1685	Q2	F	0	54	low
39	1	C1aR1	1891	C1	T	1	55	low
39	2	A2a2	1705	A2	T	1	56	low
39	3	Q2a3	1994	Q2	T	1	57	low
39	2	C1aL2	1123	C1	T	1	58	low
39	3	Q1a3	1714	Q1	T	1	59	low
39	3	M2c3	739	M2	F	1	60	low
39	1	A1a1	846	A1	T	1	61	low
39	2	V1c2	1277	V1	F	0	62	low
39	1	C1b1	1194	C1	U	1	63	low
40	2	A2c2	3973	A2	F	0	1	low
40	3	A1b3	8843	A1	U	0	2	low
40	1	A1c1	6138	A1	F	0	3	low
40	2	A2a2	2790	A2	T	1	4	low
40	3	Q1a3	3558	Q1	T	1	5	low
40	1	C1c1	3682	C1	F	0	6	low
40	3	Q1b3	7009	Q1	U	1	7	low
40	1	C1b1	5002	C1	U	0	8	low
40	1	A2a1	3229	A2	T	1	9	low
40	1	Q2a1	2900	Q2	T	1	10	low
40	1	A2b1	2962	A2	U	0	11	low
40	1	A2c1	2814	A2	F	0	12	low
40	3	A2a3	2274	A2	T	1	13	low
40	2	M2c2	5229	M2	F	0	14	low
40	3	V1c3	7599	V1	F	0	15	low
40	3	M2b3	10269	M2	U	0	16	low
40	1	M2a1	2406	M2	T	1	17	low
40	3	Q2b3	6585	Q2	U	0	18	low
40	1	M2b1	2541	M2	U	0	19	low
40	2	Q2c2	2523	Q2	F	0	20	low
40	2	Q1c2	2610	Q1	F	0	21	low
40	2	Q1b2	3389	Q1	U	0	22	low
40	3	Q2a3	2902	Q2	T	1	23	low
40	2	C1aL2	3194	C1	T	1	24	low
40	1	Q1c1	2262	Q1	F	0	25	low
40	1	V1a1	2193	V1	T	1	26	low
40	3	A2c3	3095	A2	F	0	27	low
40	3	C1b3	4126	C1	U	0	28	low
40	3	A1c3	1762	A1	F	0	29	low
40	1	V1b1	4761	V1	U	0	30	low
40	3	V1a3	2321	V1	T	1	31	low
40	3	M2c3	2888	M2	F	0	32	low
40	2	V1c2	2128	V1	F	0	33	low
40	1	A1b1	2440	A1	U	1	34	low
40	2	M2a2	2062	M2	T	1	35	low
40	1	C1aL1	1854	C1	T	1	36	low
40	1	Q1a1	3067	Q1	T	1	37	low
40	2	A1c2	1836	A1	F	0	38	low
40	2	Q2a2	3329	Q2	T	1	39	low
40	2	A2b2	2849	A2	U	0	40	low
40	1	Q1b1	4597	Q1	U	0	41	low
40	2	M2b2	2367	M2	U	0	42	low
40	1	Q2b1	4840	Q2	U	0	43	low
40	2	V1b2	2737	V1	U	0	44	low
40	2	C1c2	2633	C1	F	0	45	low
40	2	A1a2	3051	A1	T	1	46	low
40	3	M2a3	2274	M2	T	1	47	low
40	3	C1c3	3617	C1	F	0	48	low
40	2	Q1a2	2137	Q1	T	1	49	low
40	3	A2b3	2856	A2	U	0	50	low
40	3	Q1c3	2061	Q1	F	0	51	low
40	1	M2c1	2393	M2	F	0	52	low
40	3	V1b3	2108	V1	U	0	53	low
40	1	Q2c1	3426	Q2	F	0	54	low
40	2	Q2b2	2756	Q2	U	0	55	low
40	2	A1b2	5003	A1	U	1	56	low
40	1	A1a1	1906	A1	T	1	57	low
40	2	C1b2	2551	C1	U	0	58	low
40	1	C1aR1	2947	C1	T	0	59	low
40	3	A1a3	1843	A1	T	1	60	low
40	1	V1c1	2066	V1	F	0	61	low
40	3	Q2c3	2409	Q2	F	0	62	low
40	2	V1a2	2310	V1	T	1	63	low
41	1	A1c1	2733	A1	F	0	1	low
41	3	C1c3	4373	C1	F	1	2	low
41	1	A2a1	2751	A2	T	1	3	low
41	2	A2b2	3563	A2	U	1	4	low
41	3	Q1c3	2644	Q1	F	0	5	low
41	1	Q2c1	2460	Q2	F	0	6	low
41	1	C1c1	3844	C1	F	0	7	low
41	1	M2c1	3705	M2	F	0	8	low
41	3	A1a3	1652	A1	T	1	9	low
41	1	Q1a1	2448	Q1	T	1	10	low
41	3	A1c3	1472	A1	F	0	11	low
41	2	M2a2	2974	M2	T	1	12	low
41	3	M2c3	2131	M2	F	0	13	low
41	3	M2b3	2107	M2	U	1	14	low
41	3	A1b3	1833	A1	U	1	15	low
41	2	V1c2	1682	V1	F	1	16	low
41	2	Q2c2	1969	Q2	F	0	17	low
41	3	Q2c3	1906	Q2	F	0	18	low
41	2	A1b2	1423	A1	U	1	19	low
41	2	A1c2	1404	A1	F	0	20	low
41	2	C1b2	2888	C1	U	1	21	low
41	2	Q1a2	2028	Q1	T	1	22	low
41	2	M2b2	10143	M2	U	1	23	low
41	1	C1aR1	3082	C1	T	1	24	low
41	3	A2a3	2399	A2	T	1	25	low
41	1	C1b1	1607	C1	U	1	26	low
41	1	A1b1	2499	A1	U	1	27	low
41	2	C1c2	2951	C1	F	0	28	low
41	3	Q2b3	4378	Q2	U	1	29	low
41	1	V1b1	150495	V1	U	1	30	low
41	1	A2c1	2210	A2	F	0	31	low
41	2	A1a2	1764	A1	T	1	32	low
41	1	Q2b1	3200	Q2	U	1	33	low
41	3	A2b3	2004	A2	U	1	34	low
41	3	V1c3	4268	V1	F	0	35	low
41	1	C1aL1	112294	C1	T	1	36	low
41	3	V1a3	2330	V1	T	0	37	low
41	2	V1b2	3795	V1	U	1	38	low
41	2	A2c2	2198	A2	F	0	39	low
41	1	V1c1	2121	V1	F	0	40	low
41	2	Q2a2	2142	Q2	T	1	41	low
41	3	C1b3	1566	C1	U	1	42	low
41	2	Q1b2	2371	Q1	U	1	43	low
41	1	Q2a1	2027	Q2	T	1	44	low
41	1	A1a1	1813	A1	T	1	45	low
41	3	A2c3	2034	A2	F	0	46	low
41	1	M2a1	1719	M2	T	1	47	low
41	1	Q1c1	1896	Q1	F	1	48	low
41	1	V1a1	3600	V1	T	1	49	low
41	1	A2b1	1819	A2	U	1	50	low
41	3	M2a3	1703	M2	T	1	51	low
41	2	M2c2	2162	M2	F	0	52	low
41	3	Q2a3	2455	Q2	T	1	53	low
41	2	C1aL2	1988	C1	T	1	54	low
41	1	Q1b1	3344	Q1	U	1	55	low
41	3	Q1b3	1427	Q1	U	1	56	low
41	2	A2a2	1505	A2	T	1	57	low
41	3	V1b3	1576	V1	U	1	58	low
41	3	Q1a3	1455	Q1	T	1	59	low
41	1	M2b1	1353	M2	U	1	60	low
41	2	Q1c2	1598	Q1	F	0	61	low
41	2	Q2b2	1670	Q2	U	1	62	low
41	2	V1a2	1216	V1	T	1	63	low
42	2	Q2b2	1983	Q2	U	1	1	low
42	2	A2a2	2767	A2	T	1	2	low
42	1	C1aR1	2718	C1	T	1	3	low
42	1	C1b1	2174	C1	U	1	4	low
42	3	A1c3	3586	A1	F	0	5	low
42	3	A1a3	2018	A1	T	1	6	low
42	2	A1b2	2296	A1	U	1	7	low
42	1	V1a1	1929	V1	T	1	8	low
42	3	C1b3	978	C1	U	1	9	low
42	1	Q2c1	1484	Q2	F	0	10	low
42	3	M2c3	2071	M2	F	0	11	low
42	2	C1c2	1831	C1	F	1	12	low
42	2	A1a2	20751	A1	T	1	13	low
42	2	C1b2	1230	C1	U	1	14	low
42	2	Q2a2	1853	Q2	T	1	15	low
42	1	Q1b1	1452	Q1	U	1	16	low
42	1	Q2a1	1418	Q2	T	1	17	low
42	3	V1a3	1606	V1	T	1	18	low
42	2	Q1b2	1140	Q1	U	1	19	low
42	3	A2c3	1591	A2	F	0	20	low
42	2	A1c2	1451	A1	F	0	21	low
42	1	M2b1	1322	M2	U	1	22	low
42	2	Q1c2	1578	Q1	F	0	23	low
42	3	V1b3	1642	V1	U	0	24	low
42	2	M2c2	3526	M2	F	0	25	low
42	2	A2c2	1742	A2	F	0	26	low
42	2	C1aL2	1128	C1	T	1	27	low
42	3	C1c3	1189	C1	F	0	28	low
42	1	C1c1	1293	C1	F	0	29	low
42	3	Q1a3	1242	Q1	T	1	30	low
42	3	Q2a3	1366	Q2	T	1	31	low
42	3	Q2c3	1826	Q2	F	0	32	low
42	2	M2b2	967	M2	U	1	33	low
42	1	C1aL1	1301	C1	T	1	34	low
42	1	Q1a1	1588	Q1	T	1	35	low
42	1	A1a1	1197	A1	T	1	36	low
42	3	M2a3	1106	M2	T	1	37	low
42	2	V1c2	1667	V1	F	0	38	low
42	2	Q1a2	915	Q1	T	1	39	low
42	1	Q1c1	1099	Q1	F	0	40	low
42	1	A1b1	1470	A1	U	1	41	low
42	1	A1c1	1157	A1	F	0	42	low
42	2	M2a2	948	M2	T	1	43	low
42	3	Q1b3	935	Q1	U	1	44	low
42	1	V1c1	1131	V1	F	0	45	low
42	2	V1a2	1775	V1	T	1	46	low
42	1	A2c1	2550	A2	F	0	47	low
42	3	A2a3	3782	A2	T	0	48	low
42	1	M2a1	3652	M2	T	1	49	low
42	2	V1b2	2682	V1	U	0	50	low
42	1	A2b1	1088	A2	U	0	51	low
42	2	A2b2	2445	A2	U	0	52	low
42	3	Q2b3	5966	Q2	U	1	53	low
42	1	M2c1	2210	M2	F	0	54	low
42	1	V1b1	4626	V1	U	0	55	low
42	1	A2a1	4292	A2	T	0	56	low
42	3	Q1c3	2421	Q1	F	0	57	low
42	1	Q2b1	3109	Q2	U	1	58	low
42	3	A2b3	2569	A2	U	0	59	low
42	3	M2b3	2547	M2	U	1	60	low
42	3	A1b3	1835	A1	U	1	61	low
42	2	Q2c2	2858	Q2	F	0	62	low
42	3	V1c3	3223	V1	F	0	63	low
43	1	A1c1	1477	A1	F	0	1	low
43	1	A2c1	1396	A2	F	0	2	low
43	2	C1b2	1902	C1	U	1	3	low
43	2	V1b2	3611	V1	U	1	4	low
43	2	Q1a2	1340	Q1	T	1	5	low
43	1	V1c1	2056	V1	F	0	6	low
43	1	C1b1	1527	C1	U	1	7	low
43	2	V1a2	2040	V1	T	1	8	low
43	3	V1c3	1160	V1	F	0	9	low
43	1	C1aR1	2101	C1	T	1	10	low
43	3	Q1b3	1929	Q1	U	1	11	low
43	1	Q2b1	1751	Q2	U	1	12	low
43	3	Q2a3	1564	Q2	T	1	13	low
43	3	A1c3	908	A1	F	0	14	low
43	1	M2a1	1943	M2	T	1	15	low
43	1	Q1b1	1024	Q1	U	1	16	low
43	2	M2c2	2149	M2	F	0	17	low
43	2	A2c2	2574	A2	F	0	18	low
43	3	V1b3	1512	V1	U	1	19	low
43	2	C1c2	1320	C1	F	0	20	low
43	3	M2a3	1007	M2	T	1	21	low
43	2	M2b2	1259	M2	U	1	22	low
43	3	V1a3	1235	V1	T	1	23	low
43	1	A2a1	1283	A2	T	1	24	low
43	2	Q2b2	1319	Q2	U	1	25	low
43	1	A2b1	2438	A2	U	1	26	low
43	3	M2b3	1703	M2	U	1	27	low
43	2	A1b2	955	A1	U	1	28	low
43	1	M2c1	1681	M2	F	0	29	low
43	3	A2c3	1297	A2	F	0	30	low
43	2	Q2c2	1657	Q2	F	0	31	low
43	2	A1c2	1032	A1	F	0	32	low
43	3	A1b3	754	A1	U	1	33	low
43	3	C1b3	1438	C1	U	1	34	low
43	3	A1a3	1106	A1	T	1	35	low
43	1	M2b1	1256	M2	U	1	36	low
43	1	C1c1	998	C1	F	0	37	low
43	3	Q2c3	1105	Q2	F	0	38	low
43	2	Q2a2	1329	Q2	T	1	39	low
43	2	A1a2	792	A1	T	1	40	low
43	2	V1c2	1207	V1	F	0	41	low
43	1	Q2c1	1064	Q2	F	0	42	low
43	1	V1b1	1401	V1	U	1	43	low
43	3	Q1a3	1302	Q1	T	1	44	low
43	2	M2a2	1269	M2	T	1	45	low
43	2	A2b2	2384	A2	U	1	46	low
43	3	Q1c3	1066	Q1	F	0	47	low
43	3	M2c3	1014	M2	F	0	48	low
43	3	Q2b3	1004	Q2	U	1	49	low
43	3	A2a3	1286	A2	T	1	50	low
43	2	Q1c2	1453	Q1	F	0	51	low
43	2	C1aL2	1284	C1	T	1	52	low
43	1	Q2a1	1024	Q2	T	1	53	low
43	1	V1a1	1253	V1	T	1	54	low
43	1	Q1a1	1466	Q1	T	1	55	low
43	1	A1a1	769	A1	T	1	56	low
43	3	A2b3	1292	A2	U	1	57	low
43	1	A1b1	824	A1	U	1	58	low
43	1	Q1c1	1190	Q1	F	0	59	low
43	1	C1aL1	1143	C1	T	1	60	low
43	3	C1c3	1045	C1	F	0	61	low
43	2	A2a2	1411	A2	T	1	62	low
43	2	Q1b2	1395	Q1	U	1	63	low
44	2	Q1b2	2076	Q1	U	1	1	low
44	1	Q1b1	1349	Q1	U	1	2	low
44	2	Q2c2	2363	Q2	F	0	3	low
44	2	V1a2	1891	V1	T	1	4	low
44	3	V1c3	1526	V1	F	0	5	low
44	2	M2a2	2351	M2	T	0	6	low
44	2	M2c2	2502	M2	F	0	7	low
44	1	V1a1	1106	V1	T	1	8	low
44	3	V1a3	922	V1	T	1	9	low
44	1	C1c1	2584	C1	F	0	10	low
44	2	A1b2	2762	A1	U	0	11	low
44	2	C1aL2	2663	C1	T	1	12	low
44	1	M2c1	1128	M2	F	0	13	low
44	3	V1b3	1462	V1	U	0	14	low
44	2	A1a2	2095	A1	T	1	15	low
44	3	A2b3	2763	A2	U	1	16	low
44	3	C1b3	1424	C1	U	0	17	low
44	1	C1aL1	2635	C1	T	1	18	low
44	1	Q2a1	1773	Q2	T	1	19	low
44	2	A2c2	1654	A2	F	0	20	low
44	2	C1c2	2530	C1	F	0	21	low
44	3	Q1b3	1735	Q1	U	1	22	low
44	1	V1b1	1167	V1	U	0	23	low
44	2	M2b2	1147	M2	U	1	24	low
44	3	A1a3	940	A1	T	1	25	low
44	1	V1c1	1892	V1	F	0	26	low
44	1	Q2c1	3034	Q2	F	0	27	low
44	3	Q2a3	1523	Q2	T	1	28	low
44	2	A1c2	2777	A1	F	0	29	low
44	2	V1c2	1539	V1	F	0	30	low
44	1	A1b1	15703	A1	U	0	31	low
44	1	Q1c1	1559	Q1	F	0	32	low
44	1	A2b1	1194	A2	U	1	33	low
44	2	Q1a2	1439	Q1	T	1	34	low
44	3	A2c3	1831	A2	F	0	35	low
44	1	M2a1	1487	M2	T	1	36	low
44	1	Q1a1	1318	Q1	T	1	37	low
44	2	A2b2	1956	A2	U	1	38	low
44	2	V1b2	1139	V1	U	0	39	low
44	2	Q2a2	1239	Q2	T	1	40	low
44	3	Q1a3	1446	Q1	T	1	41	low
44	3	A2a3	1782	A2	T	1	42	low
44	3	A1b3	1215	A1	U	0	43	low
44	3	A1c3	1761	A1	F	0	44	low
44	2	C1b2	1639	C1	U	1	45	low
44	1	Q2b1	933	Q2	U	1	46	low
44	3	Q2b3	881	Q2	U	1	47	low
44	3	M2c3	1164	M2	F	0	48	low
44	1	A1a1	885	A1	T	1	49	low
44	2	Q1c2	1209	Q1	F	0	50	low
44	3	M2b3	858	M2	U	1	51	low
44	3	Q1c3	1119	Q1	F	0	52	low
44	1	A2a1	1283	A2	T	0	53	low
44	1	M2b1	1096	M2	U	1	54	low
44	1	C1aR1	2607	C1	T	1	55	low
44	1	C1b1	1374	C1	U	1	56	low
44	1	A2c1	1356	A2	F	0	57	low
44	3	Q2c3	1848	Q2	F	0	58	low
44	3	C1c3	1409	C1	F	0	59	low
44	3	M2a3	1456	M2	T	1	60	low
44	2	Q2b2	769	Q2	U	1	61	low
44	1	A1c1	1687	A1	F	0	62	low
44	2	A2a2	1647	A2	T	1	63	low
45	1	Q1b1	1417	Q1	U	0	1	low
45	1	C1aL1	1738	C1	T	1	2	low
45	2	Q1c2	1259	Q1	F	0	3	low
45	1	M2c1	1248	M2	F	0	4	low
45	1	A1a1	2702	A1	T	1	5	low
45	1	C1c1	931	C1	F	0	6	low
45	1	A2a1	1863	A2	T	1	7	low
45	3	Q2b3	1221	Q2	U	0	8	low
45	1	Q2b1	1086	Q2	U	0	9	low
45	1	Q2a1	1808	Q2	T	1	10	low
45	2	M2a2	1586	M2	T	1	11	low
45	3	Q1a3	1655	Q1	T	1	12	low
45	1	A1c1	1454	A1	F	0	13	low
45	3	Q1c3	1224	Q1	F	0	14	low
45	3	Q2a3	2303	Q2	T	1	15	low
45	3	M2a3	1206	M2	T	1	16	low
45	1	V1a1	952	V1	T	1	17	low
45	2	C1aL2	1432	C1	T	1	18	low
45	2	V1b2	3462	V1	U	0	19	low
45	1	Q2c1	1789	Q2	F	0	20	low
45	2	C1c2	1021	C1	F	0	21	low
45	2	A1b2	1447	A1	U	1	22	low
45	3	Q1b3	1104	Q1	U	0	23	low
45	3	A2b3	997	A2	U	0	24	low
45	2	Q2c2	2299	Q2	F	0	25	low
45	1	A2b1	7469	A2	U	1	26	low
45	3	V1c3	1115	V1	F	0	27	low
45	2	Q2a2	1617	Q2	T	1	28	low
45	1	A1b1	1531	A1	U	1	29	low
45	3	A2c3	1316	A2	F	0	30	low
45	1	V1c1	876	V1	F	0	31	low
45	3	A2a3	1206	A2	T	1	32	low
45	3	A1b3	1143	A1	U	1	33	low
45	1	A2c1	1375	A2	F	0	34	low
45	1	Q1c1	3491	Q1	F	0	35	low
45	3	V1a3	955	V1	T	1	36	low
45	2	A1c2	2039	A1	F	0	37	low
45	2	V1a2	1003	V1	T	1	38	low
45	3	M2b3	1565	M2	U	0	39	low
45	2	A2b2	2877	A2	U	1	40	low
45	1	Q1a1	1870	Q1	T	1	41	low
45	3	C1c3	1008	C1	F	0	42	low
45	2	Q1a2	1212	Q1	T	1	43	low
45	2	M2b2	892	M2	U	0	44	low
45	3	Q2c3	1843	Q2	F	0	45	low
45	1	C1b1	2077	C1	U	0	46	low
45	1	C1aR1	1001	C1	T	1	47	low
45	1	M2a1	969	M2	T	1	48	low
45	1	M2b1	917	M2	U	0	49	low
45	2	A2a2	1360	A2	T	1	50	low
45	2	V1c2	945	V1	F	0	51	low
45	2	M2c2	1090	M2	F	0	52	low
45	3	C1b3	2205	C1	U	0	53	low
45	3	V1b3	1629	V1	U	0	54	low
45	2	Q1b2	1120	Q1	U	0	55	low
45	3	M2c3	1008	M2	F	0	56	low
45	2	A1a2	1159	A1	T	1	57	low
45	1	V1b1	994	V1	U	0	58	low
45	3	A1a3	887	A1	T	1	59	low
45	2	C1b2	1276	C1	U	0	60	low
45	3	A1c3	1276	A1	F	0	61	low
45	2	Q2b2	1103	Q2	U	0	62	low
45	2	A2c2	2345	A2	F	0	63	low
46	3	M2c3	3345	M2	F	0	1	low
46	3	C1b3	2665	C1	U	1	2	low
46	2	A2c2	2968	A2	F	0	3	low
46	3	Q1c3	1472	Q1	F	0	4	low
46	1	A1c1	1747	A1	F	0	5	low
46	1	A2b1	1830	A2	U	1	6	low
46	2	C1aL2	2385	C1	T	0	7	low
46	2	Q2b2	3147	Q2	U	1	8	low
46	3	A2c3	2077	A2	F	0	9	low
46	3	C1c3	2639	C1	F	0	10	low
46	2	M2c2	1662	M2	F	0	11	low
46	2	C1c2	1436	C1	F	0	12	low
46	3	Q1b3	5827	Q1	U	0	13	low
46	2	A2a2	4175	A2	T	1	14	low
46	1	C1c1	1706	C1	F	0	15	low
46	2	A1c2	1139	A1	F	0	16	low
46	1	A1b1	2154	A1	U	1	17	low
46	1	A2c1	1888	A2	F	0	18	low
46	2	A1b2	2026	A1	U	1	19	low
46	2	V1b2	5036	V1	U	1	20	low
46	1	Q1a1	1729	Q1	T	1	21	low
46	3	Q2c3	1715	Q2	F	0	22	low
46	1	A2a1	1716	A2	T	1	23	low
46	1	M2a1	4215	M2	T	1	24	low
46	3	V1c3	2604	V1	F	0	25	low
46	1	Q1b1	3219	Q1	U	0	26	low
46	1	Q2b1	3007	Q2	U	0	27	low
46	3	A2b3	4952	A2	U	0	28	low
46	2	Q1c2	1898	Q1	F	0	29	low
46	2	A2b2	3944	A2	U	0	30	low
46	1	M2c1	1613	M2	F	0	31	low
46	3	M2a3	1559	M2	T	1	32	low
46	2	Q2a2	4026	Q2	T	1	33	low
46	1	Q2a1	1971	Q2	T	1	34	low
46	1	V1b1	1737	V1	U	1	35	low
46	2	V1c2	2674	V1	F	0	36	low
46	1	V1a1	4620	V1	T	1	37	low
46	3	V1a3	1585	V1	T	1	38	low
46	2	M2a2	2098	M2	T	1	39	low
46	1	M2b1	9646	M2	U	0	40	low
46	3	Q2b3	3294	Q2	U	0	41	low
46	2	Q1a2	1558	Q1	T	1	42	low
46	3	A1a3	1381	A1	T	1	43	low
46	3	M2b3	1899	M2	U	0	44	low
46	1	Q1c1	2114	Q1	F	0	45	low
46	2	Q1b2	1909	Q1	U	0	46	low
46	3	A2a3	1722	A2	T	1	47	low
46	3	Q2a3	2013	Q2	T	1	48	low
46	3	Q1a3	1413	Q1	T	1	49	low
46	2	M2b2	3306	M2	U	0	50	low
46	3	A1c3	1659	A1	F	0	51	low
46	2	A1a2	1872	A1	T	1	52	low
46	1	C1aL1	2391	C1	T	1	53	low
46	1	Q2c1	2242	Q2	F	0	54	low
46	3	V1b3	1886	V1	U	0	55	low
46	2	C1b2	1225	C1	U	1	56	low
46	2	V1a2	1049	V1	T	1	57	low
46	1	V1c1	1053	V1	F	0	58	low
46	1	C1aR1	999	C1	T	1	59	low
46	1	A1a1	1510	A1	T	1	60	low
46	2	Q2c2	1482	Q2	F	0	61	low
46	1	C1b1	5544	C1	U	1	62	low
46	3	A1b3	4836	A1	U	1	63	low
47	1	Q1a1	1900	Q1	T	1	1	low
47	1	M2a1	2347	M2	T	0	2	low
47	1	A1c1	1834	A1	F	0	3	low
47	3	A1c3	1598	A1	F	0	4	low
47	1	Q2c1	2177	Q2	F	0	5	low
47	2	A1a2	1590	A1	T	1	6	low
47	1	A2a1	2431	A2	T	1	7	low
47	3	M2b3	1956	M2	U	1	8	low
47	1	V1a1	1723	V1	T	1	9	low
47	2	C1c2	2972	C1	F	0	10	low
47	1	C1b1	2131	C1	U	1	11	low
47	2	M2b2	1774	M2	U	1	12	low
47	2	A1c2	1470	A1	F	0	13	low
47	1	M2c1	2574	M2	F	0	14	low
47	2	V1a2	4610	V1	T	1	15	low
47	1	Q1b1	1981	Q1	U	1	16	low
47	2	Q1c2	1930	Q1	F	0	17	low
47	2	A2c2	3532	A2	F	0	18	low
47	2	A2a2	2016	A2	T	1	19	low
47	2	C1aL2	1666	C1	T	1	20	low
47	3	Q2b3	1363	Q2	U	1	21	low
47	1	C1aR1	1648	C1	T	1	22	low
47	2	A1b2	1635	A1	U	0	23	low
47	2	Q1b2	1601	Q1	U	1	24	low
47	1	C1aL1	1200	C1	T	1	25	low
47	3	A1b3	1866	A1	U	1	26	low
47	1	A2c1	1812	A2	F	0	27	low
47	2	C1b2	1555	C1	U	1	28	low
47	1	Q1c1	326	Q1	F	1	29	low
47	3	A1a3	1442	A1	T	1	30	low
47	3	Q2a3	2150	Q2	T	1	31	low
47	1	C1c1	1726	C1	F	0	32	low
47	3	V1b3	4841	V1	U	1	33	low
47	3	Q1b3	1510	Q1	U	1	34	low
47	1	A2b1	2365	A2	U	0	35	low
47	3	Q1a3	1795	Q1	T	1	36	low
47	2	V1b2	2094	V1	U	1	37	low
47	2	M2c2	2170	M2	F	0	38	low
47	1	V1b1	1403	V1	U	1	39	low
47	3	M2a3	2320	M2	T	0	40	low
47	3	Q1c3	1613	Q1	F	0	41	low
47	3	A2a3	1659	A2	T	1	42	low
47	3	C1c3	1904	C1	F	0	43	low
47	2	Q2b2	2088	Q2	U	1	44	low
47	2	Q1a2	1518	Q1	T	1	45	low
47	2	V1c2	2110	V1	F	0	46	low
47	1	A1b1	1279	A1	U	1	47	low
47	3	A2b3	3969	A2	U	1	48	low
47	3	M2c3	3123	M2	F	0	49	low
47	3	C1b3	2721	C1	U	1	50	low
47	1	M2b1	1905	M2	U	1	51	low
47	2	Q2c2	1878	Q2	F	0	52	low
47	2	A2b2	4245	A2	U	1	53	low
47	1	A1a1	1515	A1	T	1	54	low
47	3	Q2c3	7186	Q2	F	0	55	low
47	1	Q2b1	1543	Q2	U	1	56	low
47	2	Q2a2	1445	Q2	T	1	57	low
47	3	A2c3	1673	A2	F	0	58	low
47	1	Q2a1	2108	Q2	T	1	59	low
47	1	V1c1	1526	V1	F	0	60	low
47	2	M2a2	1830	M2	T	0	61	low
47	3	V1c3	1188	V1	F	0	62	low
47	3	V1a3	1444	V1	T	1	63	low
48	1	C1c1	3538	C1	F	0	1	low
48	2	Q2c2	2040	Q2	F	0	2	low
48	3	C1c3	2084	C1	F	0	3	low
48	2	Q2a2	2152	Q2	T	1	4	low
48	2	A2a2	2708	A2	T	1	5	low
48	3	Q1b3	3246	Q1	U	1	6	low
48	3	A1b3	2492	A1	U	1	7	low
48	3	A1c3	2151	A1	F	0	8	low
48	2	Q1c2	1915	Q1	F	0	9	low
48	3	V1b3	3885	V1	U	1	10	low
48	3	Q2c3	2092	Q2	F	0	11	low
48	3	Q2b3	1606	Q2	U	0	12	low
48	2	Q2b2	1543	Q2	U	1	13	low
48	1	A2b1	3161	A2	U	1	14	low
48	3	V1a3	3057	V1	T	1	15	low
48	1	M2c1	3045	M2	F	0	16	low
48	3	Q1c3	2106	Q1	F	0	17	low
48	3	A2b3	2096	A2	U	1	18	low
48	1	C1aL1	2768	C1	T	1	19	low
48	2	V1c2	1935	V1	F	0	20	low
48	1	Q2c1	1647	Q2	F	0	21	low
48	1	Q1a1	1326	Q1	T	1	22	low
48	1	Q1c1	1565	Q1	F	0	23	low
48	2	C1c2	1739	C1	F	0	24	low
48	2	M2c2	1514	M2	F	0	25	low
48	2	Q1b2	1613	Q1	U	1	26	low
48	3	C1b3	1755	C1	U	1	27	low
48	2	A1c2	1495	A1	F	0	28	low
48	2	V1b2	2120	V1	U	1	29	low
48	2	M2b2	1839	M2	U	1	30	low
48	1	M2b1	1622	M2	U	1	31	low
48	2	A1b2	1906	A1	U	1	32	low
48	3	M2c3	2059	M2	F	0	33	low
48	2	M2a2	2909	M2	T	1	34	low
48	2	V1a2	2804	V1	T	1	35	low
48	3	Q2a3	1759	Q2	T	1	36	low
48	1	A1c1	1794	A1	F	1	37	low
48	1	A1b1	1218	A1	U	1	38	low
48	1	Q1b1	1372	Q1	U	1	39	low
48	1	C1aR1	1892	C1	T	1	40	low
48	1	C1b1	1259	C1	U	1	41	low
48	1	M2a1	2434	M2	T	1	42	low
48	1	Q2a1	2068	Q2	T	1	43	low
48	2	A2b2	2017	A2	U	0	44	low
48	1	A1a1	1677	A1	T	1	45	low
48	1	V1a1	1557	V1	T	1	46	low
48	3	A2a3	3324	A2	T	1	47	low
48	2	A1a2	1438	A1	T	1	48	low
48	3	M2b3	2818	M2	U	1	49	low
48	2	C1aL2	1006	C1	T	1	50	low
48	3	V1c3	1370	V1	F	0	51	low
48	3	A2c3	2343	A2	F	0	52	low
48	3	A1a3	1722	A1	T	1	53	low
48	3	Q1a3	2219	Q1	T	1	54	low
48	2	Q1a2	1429	Q1	T	1	55	low
48	1	A2a1	2820	A2	T	1	56	low
48	2	A2c2	1202	A2	F	1	57	low
48	1	A2c1	1070	A2	F	1	58	low
48	2	C1b2	895	C1	U	1	59	low
48	1	V1b1	1193	V1	U	1	60	low
48	1	V1c1	2447	V1	F	0	61	low
48	1	Q2b1	1095	Q2	U	1	62	low
48	3	M2a3	1498	M2	T	1	63	low
49	3	C1b3	8202	C1	U	0	1	low
49	2	V1c2	8121	V1	F	0	2	low
49	2	Q1b2	7778	Q1	U	1	3	low
49	2	Q2c2	5240	Q2	F	0	4	low
49	3	Q1b3	6616	Q1	U	1	5	low
49	3	A2c3	5587	A2	F	0	6	low
49	2	A1c2	5275	A1	F	0	7	low
49	3	A1c3	4298	A1	F	0	8	low
49	3	A2a3	5413	A2	T	0	9	low
49	3	Q1a3	5621	Q1	T	1	10	low
49	2	A2c2	6490	A2	F	0	11	low
49	1	A2c1	4013	A2	F	0	12	low
49	3	M2a3	11459	M2	T	1	13	low
49	3	A2b3	5319	A2	U	1	14	low
49	3	Q2b3	4189	Q2	U	1	15	low
49	1	V1b1	8061	V1	U	1	16	low
49	2	V1a2	4733	V1	T	1	17	low
49	1	A1a1	5167	A1	T	1	18	low
49	1	Q2a1	5571	Q2	T	1	19	low
49	1	V1a1	4130	V1	T	1	20	low
49	1	V1c1	3348	V1	F	0	21	low
49	2	A2b2	4662	A2	U	1	22	low
49	1	C1aR1	13893	C1	T	1	23	low
49	2	Q2b2	3523	Q2	U	1	24	low
49	2	M2b2	8314	M2	U	1	25	low
49	2	A2a2	4888	A2	T	1	26	low
49	2	C1b2	6831	C1	U	1	27	low
49	1	Q2b1	3668	Q2	U	1	28	low
49	1	C1aL1	6845	C1	T	1	29	low
49	1	M2a1	6096	M2	T	1	30	low
49	2	M2c2	5032	M2	F	0	31	low
49	1	A1b1	7417	A1	U	1	32	low
49	1	Q1a1	5734	Q1	T	1	33	low
49	2	C1aL2	5997	C1	T	1	34	low
49	3	C1c3	5245	C1	F	0	35	low
49	3	Q2c3	4450	Q2	F	0	36	low
49	2	M2a2	3877	M2	T	1	37	low
49	3	V1a3	4946	V1	T	1	38	low
49	1	Q1c1	4392	Q1	F	0	39	low
49	3	A1a3	3578	A1	T	1	40	low
49	1	Q2c1	4592	Q2	F	1	41	low
49	1	A2a1	4892	A2	T	1	42	low
49	3	A1b3	7867	A1	U	1	43	low
49	1	A1c1	3867	A1	F	0	44	low
49	2	V1b2	5129	V1	U	0	45	low
49	3	V1b3	3830	V1	U	0	46	low
49	1	M2c1	5436	M2	F	0	47	low
49	3	V1c3	3991	V1	F	0	48	low
49	1	Q1b1	2595	Q1	U	1	49	low
49	2	A1a2	5564	A1	T	1	50	low
49	2	Q1c2	5750	Q1	F	0	51	low
49	3	Q1c3	3369	Q1	F	0	52	low
49	1	A2b1	5513	A2	U	1	53	low
49	2	C1c2	4897	C1	F	0	54	low
49	3	M2b3	3403	M2	U	1	55	low
49	1	M2b1	4783	M2	U	1	56	low
49	1	C1c1	7449	C1	F	0	57	low
49	3	Q2a3	8003	Q2	T	1	58	low
49	2	Q2a2	6232	Q2	T	1	59	low
49	2	A1b2	3927	A1	U	1	60	low
49	2	Q1a2	7901	Q1	T	1	61	low
49	1	C1b1	3464	C1	U	1	62	low
49	3	M2c3	2953	M2	F	0	63	low
50	1	Q1b1	1716	Q1	U	1	1	low
50	3	V1b3	2013	V1	U	1	2	low
50	3	C1b3	1940	C1	U	1	3	low
50	3	Q1c3	1095	Q1	F	0	4	low
50	2	Q1a2	1044	Q1	T	1	5	low
50	1	C1aR1	2190	C1	T	1	6	low
50	3	A1a3	865	A1	T	1	7	low
50	2	M2c2	1341	M2	F	0	8	low
50	3	Q1b3	829	Q1	U	1	9	low
50	2	A2a2	1517	A2	T	1	10	low
50	1	A1c1	856	A1	F	0	11	low
50	1	C1c1	1253	C1	F	0	12	low
50	3	M2b3	1379	M2	U	1	13	low
50	1	A2a1	1137	A2	T	1	14	low
50	2	A1c2	764	A1	F	0	15	low
50	1	V1c1	1387	V1	F	0	16	low
50	1	A1a1	678	A1	T	1	17	low
50	1	V1a1	1111	V1	T	1	18	low
50	2	V1b2	1335	V1	U	1	19	low
50	1	M2c1	822	M2	F	0	20	low
50	2	Q2a2	1484	Q2	T	1	21	low
50	2	M2b2	733	M2	U	1	22	low
50	1	C1b1	783	C1	U	1	23	low
50	1	Q1c1	693	Q1	F	0	24	low
50	3	Q2a3	990	Q2	T	1	25	low
50	1	V1b1	760	V1	U	1	26	low
50	1	A2b1	4349	A2	U	1	27	low
50	3	C1c3	770	C1	F	0	28	low
50	3	M2a3	872	M2	T	1	29	low
50	3	A2a3	707	A2	T	1	30	low
50	2	C1aL2	1085	C1	T	1	31	low
50	1	M2a1	752	M2	T	1	32	low
50	3	Q1a3	1735	Q1	T	1	33	low
50	3	A1b3	1091	A1	U	1	34	low
50	1	A2c1	2925	A2	F	0	35	low
50	2	A2b2	873	A2	U	1	36	low
50	1	Q2b1	1051	Q2	U	1	37	low
50	2	C1c2	884	C1	F	0	38	low
50	2	Q2b2	674	Q2	U	1	39	low
50	1	Q2c1	974	Q2	F	0	40	low
50	2	A1a2	646	A1	T	1	41	low
50	3	A1c3	644	A1	F	0	42	low
50	1	C1aL1	1806	C1	T	1	43	low
50	3	V1a3	806	V1	T	1	44	low
50	2	A1b2	661	A1	U	1	45	low
50	2	Q2c2	784	Q2	F	0	46	low
50	3	Q2b3	1242	Q2	U	1	47	low
50	2	V1a2	596	V1	T	1	48	low
50	2	A2c2	934	A2	F	0	49	low
50	3	M2c3	1052	M2	F	0	50	low
50	1	M2b1	987	M2	U	1	51	low
50	2	Q1c2	879	Q1	F	0	52	low
50	2	V1c2	779	V1	F	0	53	low
50	2	Q1b2	841	Q1	U	1	54	low
50	3	V1c3	661	V1	F	0	55	low
50	1	Q2a1	1221	Q2	T	1	56	low
50	3	Q2c3	793	Q2	F	0	57	low
50	3	A2b3	1004	A2	U	1	58	low
50	3	A2c3	1012	A2	F	0	59	low
50	1	A1b1	737	A1	U	1	60	low
50	2	M2a2	1072	M2	T	1	61	low
50	2	C1b2	726	C1	U	1	62	low
50	1	Q1a1	1144	Q1	T	1	63	low
51	1	A1c1	1184	A1	F	0	1	high
51	1	A1b1	330	A1	U	1	2	high
51	3	A2b3	9001	A2	U	0	3	high
51	1	Q2a1	1154	Q2	T	1	4	high
51	3	M2b3	1926	M2	U	1	5	high
51	2	Q2b2	177	Q2	U	1	6	high
51	1	Q1a1	845	Q1	T	1	7	high
51	1	M2c1	83	M2	F	0	8	high
51	2	V1c2	403	V1	F	1	9	high
51	1	Q1b1	4	Q1	U	0	10	high
51	3	Q2a3	366	Q2	T	1	11	high
51	1	C1c1	86	C1	F	1	12	high
51	2	M2a2	124	M2	T	1	13	high
51	2	Q2c2	1487	Q2	F	1	14	high
51	2	A2c2	1235	A2	F	0	15	high
51	1	C1aR1	750	C1	T	0	16	high
51	1	V1a1	236	V1	T	1	17	high
51	3	V1c3	12	V1	F	0	18	high
51	2	Q1b2	10763	Q1	U	0	19	high
51	2	A2b2	904	A2	U	1	20	high
51	3	Q2c3	104	Q2	F	1	21	high
51	1	Q1c1	193	Q1	F	0	22	high
51	3	Q1a3	1049	Q1	T	0	23	high
51	1	M2b1	259	M2	U	1	24	high
51	3	A1c3	772	A1	F	1	25	high
51	1	A1a1	738	A1	T	1	26	high
51	3	A2a3	894	A2	T	1	27	high
51	2	C1b2	9017	C1	U	0	28	high
51	2	C1c2	147	C1	F	0	29	high
51	3	A1b3	27	A1	U	0	30	high
51	2	M2c2	379	M2	F	1	31	high
51	3	Q2b3	7368	Q2	U	1	32	high
51	3	A2c3	7744	A2	F	1	33	high
51	2	Q1a2	604	Q1	T	1	34	high
51	2	Q1c2	234	Q1	F	1	35	high
51	3	V1b3	330	V1	U	0	36	high
51	3	M2a3	276	M2	T	1	37	high
51	1	C1aL1	246	C1	T	0	38	high
51	3	C1b3	403	C1	U	0	39	high
51	1	V1b1	236	V1	U	0	40	high
51	1	Q2b1	329	Q2	U	1	41	high
51	1	A2b1	982	A2	U	1	42	high
51	1	M2a1	277	M2	T	0	43	high
51	3	Q1c3	6235	Q1	F	0	44	high
51	3	A1a3	280	A1	T	0	45	high
51	3	C1c3	322	C1	F	0	46	high
51	3	V1a3	62	V1	T	1	47	high
51	2	A1a2	121	A1	T	0	48	high
51	1	A2c1	1981	A2	F	1	49	high
51	3	M2c3	312	M2	F	0	50	high
51	2	M2b2	169	M2	U	1	51	high
51	1	C1b1	221	C1	U	0	52	high
51	2	C1aL2	145	C1	T	0	53	high
51	2	A2a2	57	A2	T	0	54	high
51	1	Q2c1	263	Q2	F	1	55	high
51	2	A1b2	311	A1	U	1	56	high
51	1	A2a1	135	A2	T	1	57	high
51	2	V1b2	17	V1	U	1	58	high
51	2	A1c2	143	A1	F	0	59	high
51	2	V1a2	158	V1	T	0	60	high
51	2	Q2a2	230	Q2	T	1	61	high
51	3	Q1b3	114	Q1	U	1	62	high
51	1	V1c1	396	V1	F	1	63	high
52	2	Q1b2	1823	Q1	U	1	1	high
52	3	Q1b3	1685	Q1	U	1	2	high
52	1	C1aL1	3218	C1	T	1	3	high
52	1	A2b1	4744	A2	U	1	4	high
52	1	A2a1	1492	A2	T	1	5	high
52	3	V1c3	3010	V1	F	0	6	high
52	3	M2c3	1917	M2	F	0	7	high
52	1	Q2a1	2046	Q2	T	1	8	high
52	2	A1b2	2842	A1	U	1	9	high
52	3	V1a3	1638	V1	T	1	10	high
52	1	A1b1	1527	A1	U	1	11	high
52	2	A2a2	1309	A2	T	1	12	high
52	3	M2b3	1380	M2	U	1	13	high
52	2	Q1a2	1678	Q1	T	1	14	high
52	1	C1b1	2661	C1	U	1	15	high
52	3	C1b3	1401	C1	U	1	16	high
52	3	A1b3	1237	A1	U	1	17	high
52	3	Q1c3	1211	Q1	F	0	18	high
52	1	A1a1	1358	A1	T	1	19	high
52	1	M2a1	1620	M2	T	1	20	high
52	1	Q1a1	1049	Q1	T	1	21	high
52	2	A2c2	1735	A2	F	0	22	high
52	3	C1c3	1299	C1	F	1	23	high
52	3	A2a3	1320	A2	T	1	24	high
52	2	Q2b2	2202	Q2	U	1	25	high
52	3	Q1a3	1276	Q1	T	1	26	high
52	2	M2b2	1131	M2	U	1	27	high
52	1	Q2b1	1366	Q2	U	1	28	high
52	3	A1c3	1338	A1	F	0	29	high
52	1	A2c1	1304	A2	F	0	30	high
52	2	A1c2	1184	A1	F	0	31	high
52	1	Q1b1	1441	Q1	U	1	32	high
52	2	V1b2	1742	V1	U	1	33	high
52	3	M2a3	1475	M2	T	1	34	high
52	1	A1c1	1306	A1	F	0	35	high
52	1	V1b1	2190	V1	U	1	36	high
52	3	Q2a3	1901	Q2	T	1	37	high
52	2	Q2c2	1225	Q2	F	0	38	high
52	1	C1c1	1643	C1	F	0	39	high
52	2	M2a2	1149	M2	T	1	40	high
52	1	V1c1	1235	V1	F	0	41	high
52	3	A2b3	1365	A2	U	1	42	high
52	2	C1b2	1322	C1	U	1	43	high
52	2	C1c2	1021	C1	F	0	44	high
52	2	Q2a2	1207	Q2	T	1	45	high
52	2	A2b2	1244	A2	U	1	46	high
52	3	A2c3	1178	A2	F	0	47	high
52	1	Q1c1	1414	Q1	F	0	48	high
52	3	Q2c3	1688	Q2	F	0	49	high
52	3	V1b3	1168	V1	U	1	50	high
52	1	V1a1	1306	V1	T	1	51	high
52	2	A1a2	2207	A1	T	1	52	high
52	1	C1aR1	1446	C1	T	1	53	high
52	1	M2c1	1189	M2	F	0	54	high
52	2	C1aL2	1217	C1	T	1	55	high
52	1	Q2c1	1280	Q2	F	0	56	high
52	2	V1a2	1103	V1	T	1	57	high
52	1	M2b1	1036	M2	U	1	58	high
52	2	V1c2	1078	V1	F	0	59	high
52	2	Q1c2	1522	Q1	F	0	60	high
52	3	Q2b3	1126	Q2	U	1	61	high
52	2	M2c2	1042	M2	F	0	62	high
52	3	A1a3	952	A1	T	1	63	high
53	2	V1b2	4928	V1	U	1	1	high
53	2	C1aL2	3648	C1	T	1	2	high
53	1	V1c1	2216	V1	F	0	3	high
53	2	Q2a2	1731	Q2	T	1	4	high
53	3	A1b3	1699	A1	U	1	5	high
53	3	M2c3	2214	M2	F	0	6	high
53	1	M2b1	2023	M2	U	1	7	high
53	1	Q2c1	1532	Q2	F	0	8	high
53	1	A1c1	1247	A1	F	0	9	high
53	1	Q2b1	1068	Q2	U	1	10	high
53	2	M2b2	1351	M2	U	1	11	high
53	2	M2a2	1330	M2	T	1	12	high
53	2	A2a2	1616	A2	T	1	13	high
53	3	Q1a3	1307	Q1	T	1	14	high
53	1	C1aL1	1214	C1	T	1	15	high
53	1	A1b1	847	A1	U	1	16	high
53	2	Q1c2	1249	Q1	F	0	17	high
53	3	Q2c3	1528	Q2	F	0	18	high
53	1	C1aR1	1061	C1	T	1	19	high
53	1	C1c1	1274	C1	F	1	20	high
53	2	A1b2	850	A1	U	1	21	high
53	3	A1c3	940	A1	F	0	22	high
53	3	C1c3	1488	C1	F	0	23	high
53	3	C1b3	995	C1	U	0	24	high
53	3	V1c3	1100	V1	F	0	25	high
53	1	V1a1	4285	V1	T	1	26	high
53	2	Q2b2	1026	Q2	U	1	27	high
53	1	A2a1	1162	A2	T	1	28	high
53	1	A1a1	966	A1	T	1	29	high
53	1	Q1b1	1068	Q1	U	0	30	high
53	2	C1b2	1205	C1	U	0	31	high
53	1	A2c1	1314	A2	F	0	32	high
53	3	Q1b3	981	Q1	U	0	33	high
53	2	Q1b2	852	Q1	U	0	34	high
53	3	Q2a3	1163	Q2	T	1	35	high
53	2	A1a2	746	A1	T	1	36	high
53	1	Q1a1	967	Q1	T	1	37	high
53	2	V1a2	1469	V1	T	1	38	high
53	1	C1b1	778	C1	U	0	39	high
53	1	V1b1	898	V1	U	1	40	high
53	2	Q1a2	918	Q1	T	1	41	high
53	3	A1a3	653	A1	T	1	42	high
53	2	M2c2	1637	M2	F	0	43	high
53	1	M2a1	1038	M2	T	1	44	high
53	3	Q1c3	963	Q1	F	0	45	high
53	2	Q2c2	1299	Q2	F	0	46	high
53	1	Q2a1	1384	Q2	T	1	47	high
53	2	A2c2	1365	A2	F	0	48	high
53	3	A2c3	1695	A2	F	0	49	high
53	1	A2b1	902	A2	U	0	50	high
53	3	V1a3	859	V1	T	1	51	high
53	2	C1c2	1458	C1	F	0	52	high
53	1	M2c1	5581	M2	F	0	53	high
53	3	A2a3	1044	A2	T	1	54	high
53	2	V1c2	930	V1	F	0	55	high
53	2	A2b2	1127	A2	U	1	56	high
53	3	A2b3	947	A2	U	0	57	high
53	1	Q1c1	3594	Q1	F	0	58	high
53	3	V1b3	1211	V1	U	1	59	high
53	2	A1c2	915	A1	F	0	60	high
53	3	M2b3	953	M2	U	1	61	high
53	3	M2a3	1025	M2	T	1	62	high
53	3	Q2b3	1069	Q2	U	1	63	high
54	3	A1a3	2992	A1	T	0	1	high
54	1	A1b1	1451	A1	U	0	2	high
54	1	M2b1	1954	M2	U	0	3	high
54	2	A2b2	3220	A2	U	1	4	high
54	3	M2c3	2691	M2	F	0	5	high
54	2	C1c2	2370	C1	F	0	6	high
54	3	M2a3	1274	M2	T	0	7	high
54	1	M2c1	1369	M2	F	0	8	high
54	2	Q2b2	1664	Q2	U	0	9	high
54	2	C1b2	5464	C1	U	0	10	high
54	1	C1c1	1370	C1	F	0	11	high
54	2	V1b2	1597	V1	U	0	12	high
54	3	Q2b3	1154	Q2	U	0	13	high
54	1	A1a1	1058	A1	T	0	14	high
54	3	Q1b3	1070	Q1	U	0	15	high
54	2	M2c2	1714	M2	F	1	16	high
54	3	V1b3	1141	V1	U	0	17	high
54	1	M2a1	1091	M2	T	0	18	high
54	1	Q2a1	1586	Q2	T	0	19	high
54	1	Q2b1	1103	Q2	U	0	20	high
54	2	A1b2	1010	A1	U	0	21	high
54	2	A2c2	1101	A2	F	0	22	high
54	2	A2a2	1110	A2	T	0	23	high
54	1	C1aL1	1021	C1	T	0	24	high
54	2	Q1a2	1759	Q1	T	0	25	high
54	3	Q1c3	921	Q1	F	0	26	high
54	1	C1aR1	989	C1	T	0	27	high
54	3	C1c3	936	C1	F	0	28	high
