SUBJECT	ITEM	CONDITION	RT	SCALE	TYPE	RESP	TRIAL
1	1	V1c1	3443	V1	F	0	1
1	1	A1c1	4671	A1	F	0	2
1	3	M1a3	3425	M1	T	1	3
1	1	A2c1	1718	A2	F	0	4
1	1	Q1c1	1498	Q1	F	0	5
1	3	M2c3	1179	M2	F	0	6
1	3	Q1b3	881	Q1	U	1	7
1	2	C1b2	2316	C1	U	0	8
1	3	M1b3	680	M1	U	1	9
1	2	M1b2	863	M1	U	1	10
1	1	Q1a1	2532	Q1	T	0	11
1	2	Q2c2	1199	Q2	F	0	12
1	1	Q1b1	624	Q1	U	1	13
1	R1	C1aR1	1012	C1	T	0	14
1	1	C1c1	1152	C1	F	0	15
1	3	V1a3	656	V1	T	1	16
1	3	A1a3	537	A1	T	1	17
1	1	M2b1	1036	M2	U	1	18
1	1	V1b1	1125	V1	U	1	19
1	2	V1b2	1093	V1	U	0	20
1	1	A2a1	1561	A2	T	1	21
1	1	C1b1	1015	C1	U	1	22
1	1	Q2a1	765	Q2	T	0	23
1	1	A1b1	892	A1	U	1	24
1	1	M2c1	620	M2	F	0	25
1	2	A1a2	615	A1	T	1	26
1	1	M1b1	671	M1	U	1	27
1	2	A1c2	618	A1	F	0	28
1	3	Q2c3	841	Q2	F	0	29
1	3	Q2b3	597	Q2	U	1	30
1	3	Q2a3	762	Q2	T	1	31
1	2	M2b2	514	M2	U	1	32
1	3	A1b3	643	A1	U	1	33
1	2	Q1b2	683	Q1	U	1	34
1	3	Q1c3	1145	Q1	F	0	35
1	1	Q2c1	704	Q2	F	0	36
1	1	Q2b1	545	Q2	U	1	37
1	2	A2c2	748	A2	F	1	38
1	3	A2c3	2347	A2	F	1	39
1	2	Q1c2	2318	Q1	F	0	40
1	1	A2b1	1234	A2	U	1	41
1	2	A2b2	917	A2	U	1	42
1	1	V1a1	662	V1	T	1	43
1	1	M2a1	1903	M2	T	0	44
1	3	M2a3	1491	M2	T	0	45
1	3	Q1a3	686	Q1	T	1	46
1	2	A2a2	874	A2	T	1	47
1	2	Q2b2	731	Q2	U	1	48
1	2	M2a2	1234	M2	T	1	49
1	2	C1c2	1120	C1	F	0	50
1	2	A1b2	598	A1	U	1	51
1	L2	C1aL2	690	C1	T	1	52
1	2	M2c2	1272	M2	F	0	53
1	1	M1a1	623	M1	T	0	54
1	2	M1a2	575	M1	T	0	55
1	3	C1b3	616	C1	U	1	56
1	2	V1a2	497	V1	T	1	57
1	2	V1c2	908	V1	F	0	58
1	2	Q1a2	527	Q1	T	1	59
1	3	C1c3	529	C1	F	0	60
1	3	A2a3	743	A2	T	1	61
1	1	V1c1	1015	V1	F	0	62
1	3	A1c3	736	A1	F	0	63
1	1	M1c1	2324	M1	F	0	64
1	3	V1b3	2478	V1	U	0	65
1	2	Q2a2	733	Q2	T	1	66
1	1	A1a1	513	A1	T	1	67
1	3	A2b3	704	A2	U	0	68
1	3	M2b3	610	M2	U	1	69
1	L1	C1aL1	558	C1	T	1	70
1	2	M1c2	1353	M1	F	0	71
1	3	M1c3	988	M1	F	0	72
2	1	V1c1	3558	V1	F	0	1
2	2	A2b2	1527	A2	U	1	2
2	1	V1a1	1240	V1	T	1	3
2	1	Q2a1	1406	Q2	T	1	4
2	R1	C1aR1	2357	C1	T	1	5
2	3	A1b3	1184	A1	U	1	6
2	2	V1c2	1003	V1	F	0	7
2	2	C1b2	1314	C1	U	1	8
2	1	A2a1	1383	A2	T	0	9
2	1	Q1c1	1037	Q1	F	0	10
2	1	A1b1	1503	A1	U	1	11
2	3	Q2a3	1558	Q2	T	1	12
2	2	A2c2	1183	A2	F	1	13
2	2	Q2b2	1035	Q2	U	1	14
2	3	V1a3	1089	V1	T	1	15
2	3	Q2c3	1108	Q2	F	0	16
2	3	C1c3	1051	C1	F	0	17
2	1	C1b1	1215	C1	U	0	18
2	1	Q1a1	2729	Q1	T	1	19
2	1	A1c1	995	A1	F	0	20
2	3	Q1b3	1346	Q1	U	0	21
2	2	Q2c2	859	Q2	F	0	22
2	1	Q2c1	2066	Q2	F	0	23
2	1	M1b1	1274	M1	U	1	24
2	L2	C1aL2	928	C1	T	1	25
2	L1	C1aL1	1089	C1	T	1	26
2	2	C1c2	953	C1	F	0	27
2	2	A2a2	1309	A2	T	0	28
2	3	C1b3	883	C1	U	0	29
2	1	A1a1	945	A1	T	1	30
2	3	V1b3	2954	V1	U	0	31
2	3	M1c3	1403	M1	F	0	32
2	2	V1a2	938	V1	T	1	33
2	1	A2b1	1469	A2	U	1	34
2	2	M1a2	2180	M1	T	0	35
2	2	M2a2	1870	M2	T	0	36
2	3	M2a3	2711	M2	T	1	37
2	1	M2a1	2075	M2	T	1	38
2	2	Q2a2	1394	Q2	T	1	39
2	3	A1a3	755	A1	T	1	40
2	3	M2b3	1638	M2	U	1	41
2	1	Q2b1	979	Q2	U	1	42
2	3	A2c3	1450	A2	F	0	43
2	2	Q1b2	985	Q1	U	0	44
2	1	V1b1	1060	V1	U	0	45
2	1	M2c1	1476	M2	F	0	46
2	3	Q1a3	1460	Q1	T	1	47
2	2	M1b2	1182	M1	U	1	48
2	1	Q1b1	1055	Q1	U	0	49
2	2	Q1a2	823	Q1	T	1	50
2	2	A1b2	1384	A1	U	1	51
2	1	M1a1	3685	M1	T	1	52
2	3	Q2b3	1346	Q2	U	0	53
2	3	A2b3	834	A2	U	1	54
2	3	Q1c3	855	Q1	F	0	55
2	1	V1c1	890	V1	F	0	56
2	2	V1b2	953	V1	U	0	57
2	1	M2b1	2202	M2	U	1	58
2	1	M1c1	966	M1	F	0	59
2	3	A1c3	817	A1	F	0	60
2	2	A1a2	783	A1	T	1	61
2	2	M1c2	852	M1	F	0	62
2	1	C1c1	812	C1	F	0	63
2	3	M2c3	816	M2	F	0	64
2	1	A2c1	739	A2	F	0	65
2	3	M1a3	1524	M1	T	0	66
2	2	M2b2	1271	M2	U	1	67
2	2	M2c2	823	M2	F	0	68
2	3	A2a3	908	A2	T	1	69
2	3	M1b3	807	M1	U	1	70
2	2	A1c2	680	A1	F	0	71
2	2	Q1c2	590	Q1	F	0	72
3	1	V1c1	5592	V1	F	0	1
3	2	A1c2	3839	A1	F	0	2
3	L1	C1aL1	2898	C1	T	1	3
3	1	C1c1	1638	C1	F	0	4
3	2	A2c2	1202	A2	F	0	5
3	1	M2c1	905	M2	F	0	6
3	3	M2c3	1311	M2	F	0	7
3	3	A1b3	1409	A1	U	1	8
3	2	Q2a2	1017	Q2	T	1	9
3	L2	C1aL2	1772	C1	T	1	10
3	3	Q2a3	1107	Q2	T	1	11
3	1	A2c1	1283	A2	F	0	12
3	3	M2b3	7526	M2	U	0	13
3	2	M2c2	1227	M2	F	0	14
3	1	Q2a1	776	Q2	T	1	15
3	1	Q2b1	699	Q2	U	1	16
3	3	V1b3	1260	V1	U	1	17
3	3	Q2b3	6798	Q2	U	0	18
3	3	A1a3	1113	A1	T	1	19
3	1	Q1c1	744	Q1	F	0	20
3	1	A1c1	651	A1	F	0	21
3	1	V1b1	1258	V1	U	1	22
3	2	Q2c2	953	Q2	F	0	23
3	3	Q2c3	827	Q2	F	0	24
3	3	Q1a3	749	Q1	T	1	25
3	3	A2c3	794	A2	F	0	26
3	2	Q1a2	763	Q1	T	1	27
3	1	Q1a1	835	Q1	T	1	28
3	2	Q1b2	786	Q1	U	0	29
3	3	C1b3	4659	C1	U	0	30
3	1	A2b1	1574	A2	U	1	31
3	1	A1b1	640	A1	U	1	32
3	1	M1c1	2535	M1	F	0	33
3	2	Q1c2	819	Q1	F	0	34
3	1	Q1b1	5513	Q1	U	0	35
3	2	A1a2	648	A1	T	1	36
3	2	Q2b2	1293	Q2	U	0	37
3	3	M1a3	1632	M1	T	1	38
3	1	V1c1	886	V1	F	0	39
3	2	A2a2	870	A2	T	1	40
3	3	M1b3	2299	M1	U	1	41
3	2	A2b2	1288	A2	U	1	42
3	3	M2a3	874	M2	T	1	43
3	1	C1b1	1687	C1	U	0	44
3	2	C1c2	1073	C1	F	0	45
3	1	A1a1	550	A1	T	1	46
3	3	M1c3	1016	M1	F	0	47
3	3	Q1c3	752	Q1	F	0	48
3	2	C1b2	837	C1	U	0	49
3	2	V1b2	976	V1	U	1	50
3	2	M1a2	809	M1	T	1	51
3	3	C1c3	822	C1	F	0	52
3	2	M1c2	819	M1	F	0	53
3	3	A2a3	849	A2	T	1	54
3	R1	C1aR1	874	C1	T	1	55
3	1	M1a1	705	M1	T	1	56
3	2	M2b2	1162	M2	U	0	57
3	1	M2b1	981	M2	U	0	58
3	1	A2a1	742	A2	T	1	59
3	2	A1b2	633	A1	U	1	60
3	3	A2b3	1011	A2	U	1	61
3	3	A1c3	1012	A1	F	0	62
3	1	M1b1	810	M1	U	1	63
3	2	V1c2	1218	V1	F	0	64
3	1	M2a1	891	M2	T	1	65
3	1	Q2c1	788	Q2	F	0	66
3	2	M1b2	780	M1	U	1	67
3	3	V1a3	1566	V1	T	1	68
3	3	Q1b3	1121	Q1	U	0	69
3	2	M2a2	823	M2	T	1	70
3	2	V1a2	1067	V1	T	1	71
3	1	V1a1	1116	V1	T	1	72
4	1	V1c1	2986	V1	F	0	1
4	1	Q2b1	1677	Q2	U	1	2
4	1	M1a1	2158	M1	T	0	3
4	1	A2b1	1605	A2	U	1	4
4	1	Q1a1	1653	Q1	T	1	5
4	3	A2c3	2327	A2	F	0	6
4	1	M2a1	1901	M2	T	1	7
4	2	Q1c2	1510	Q1	F	0	8
4	3	C1c3	1213	C1	F	0	9
4	2	M2a2	3269	M2	T	1	10
4	1	A1c1	3374	A1	F	0	11
4	3	Q1a3	1358	Q1	T	1	12
4	3	V1a3	1293	V1	T	1	13
4	2	A1c2	1718	A1	F	0	14
4	1	A1a1	1812	A1	T	1	15
4	3	M1a3	1430	M1	T	0	16
4	2	Q2c2	3221	Q2	F	0	17
4	2	M2c2	1582	M2	F	0	18
4	1	Q2a1	1375	Q2	T	1	19
4	3	M2a3	1582	M2	T	1	20
4	1	V1c1	1278	V1	F	0	21
4	2	A2b2	2565	A2	U	1	22
4	2	M1c2	2446	M1	F	0	23
4	3	C1b3	1662	C1	U	1	24
4	2	V1c2	1254	V1	F	0	25
4	1	A2a1	1677	A2	T	1	26
4	R1	C1aR1	3205	C1	T	1	27
4	1	V1a1	1094	V1	T	1	28
4	3	V1b3	1413	V1	U	0	29
4	3	Q1b3	2470	Q1	U	1	30
4	2	Q2a2	1085	Q2	T	1	31
4	3	Q2c3	2958	Q2	F	0	32
4	2	V1a2	893	V1	T	1	33
4	2	Q1b2	3052	Q1	U	1	34
4	3	Q2a3	1237	Q2	T	1	35
4	2	M2b2	1429	M2	U	1	36
4	2	A2c2	1565	A2	F	0	37
4	1	Q1c1	1164	Q1	F	0	38
4	1	A1b1	7542	A1	U	0	39
4	3	M2b3	2260	M2	U	1	40
4	L2	C1aL2	1413	C1	T	1	41
4	1	M1b1	1108	M1	U	1	42
4	1	M1c1	1909	M1	F	0	43
4	3	A1a3	1246	A1	T	1	44
4	1	A2c1	1223	A2	F	0	45
4	1	M2b1	957	M2	U	1	46
4	3	A1c3	1109	A1	F	0	47
4	3	A2a3	1429	A2	T	1	48
4	1	M2c1	1534	M2	F	0	49
4	2	M1a2	1830	M1	T	0	50
4	3	M1b3	869	M1	U	1	51
4	1	Q1b1	2390	Q1	U	0	52
4	2	M1b2	790	M1	U	1	53
4	2	A1a2	949	A1	T	1	54
4	2	Q1a2	990	Q1	T	1	55
4	2	C1b2	1006	C1	U	1	56
4	2	Q2b2	708	Q2	U	1	57
4	2	V1b2	1174	V1	U	0	58
4	3	A1b3	2046	A1	U	0	59
4	2	C1c2	1102	C1	F	0	60
4	L1	C1aL1	846	C1	T	1	61
4	2	A2a2	910	A2	T	1	62
4	1	V1b1	1254	V1	U	0	63
4	3	A2b3	1221	A2	U	0	64
4	3	M2c3	1325	M2	F	0	65
4	3	Q1c3	2173	Q1	F	0	66
4	3	Q2b3	2477	Q2	U	1	67
4	1	C1b1	1326	C1	U	1	68
4	1	Q2c1	1318	Q2	F	0	69
4	1	C1c1	1198	C1	F	0	70
4	2	A1b2	1030	A1	U	0	71
4	3	M1c3	1566	M1	F	0	72
5	1	V1c1	2501	V1	F	1	1
5	3	M1c3	2230	M1	F	0	2
5	2	M1c2	938	M1	F	0	3
5	1	M2b1	3973	M2	U	0	4
5	2	M1b2	2145	M1	U	1	5
5	2	A1b2	1473	A1	U	1	6
5	3	Q2a3	939	Q2	T	1	7
5	2	M2a2	1294	M2	T	1	8
5	2	A2b2	1666	A2	U	1	9
5	2	Q2a2	867	Q2	T	1	10
5	2	A2a2	1029	A2	T	1	11
5	3	Q2c3	1893	Q2	F	0	12
5	1	Q1c1	1173	Q1	F	0	13
5	3	A1a3	906	A1	T	1	14
5	2	V1c2	2963	V1	F	1	15
5	1	A2b1	2077	A2	U	1	16
5	2	M2b2	808	M2	U	0	17
5	2	M2c2	1492	M2	F	0	18
5	2	Q2c2	1082	Q2	F	0	19
5	3	M2a3	687	M2	T	1	20
5	R1	C1aR1	974	C1	T	1	21
5	2	M1a2	1592	M1	T	1	22
5	3	A2a3	2484	A2	T	1	23
5	1	V1c1	2877	V1	F	1	24
5	2	V1a2	1144	V1	T	1	25
5	1	A1c1	1276	A1	F	0	26
5	1	Q2c1	1118	Q2	F	0	27
5	2	A1a2	993	A1	T	1	28
5	3	M2b3	1044	M2	U	0	29
5	2	Q1a2	1918	Q1	T	1	30
5	1	A2c1	1945	A2	F	0	31
5	1	M1a1	893	M1	T	1	32
5	3	A2c3	1277	A2	F	0	33
5	3	M1a3	2676	M1	T	1	34
5	1	M2c1	799	M2	F	0	35
5	1	M2a1	731	M2	T	1	36
5	1	M1c1	1893	M1	F	0	37
5	1	A1a1	785	A1	T	1	38
5	3	V1a3	826	V1	T	1	39
5	L1	C1aL1	1113	C1	T	1	40
5	3	A2b3	1066	A2	U	1	41
5	3	M1b3	877	M1	U	1	42
5	2	Q1c2	1102	Q1	F	0	43
5	1	Q2a1	759	Q2	T	1	44
5	1	Q1a1	740	Q1	T	1	45
5	3	M2c3	877	M2	F	0	46
5	1	Q2b1	984	Q2	U	1	47
5	3	Q1b3	1737	Q1	U	1	48
5	3	Q1a3	1091	Q1	T	1	49
5	3	C1c3	1088	C1	F	0	50
5	3	C1b3	1174	C1	U	1	51
5	1	A1b1	1246	A1	U	1	52
5	3	Q1c3	709	Q1	F	0	53
5	1	V1a1	699	V1	T	1	54
5	1	V1b1	2029	V1	U	1	55
5	2	Q2b2	875	Q2	U	1	56
5	2	V1b2	656	V1	U	1	57
5	L2	C1aL2	756	C1	T	1	58
5	3	A1b3	834	A1	U	1	59
5	3	Q2b3	776	Q2	U	1	60
5	2	C1c2	1370	C1	F	0	61
5	3	A1c3	747	A1	F	0	62
5	2	A2c2	1217	A2	F	0	63
5	1	Q1b1	868	Q1	U	1	64
5	3	V1b3	728	V1	U	1	65
5	2	C1b2	769	C1	U	1	66
5	1	M1b1	732	M1	U	1	67
5	2	A1c2	761	A1	F	0	68
5	2	Q1b2	1325	Q1	U	1	69
5	1	A2a1	800	A2	T	1	70
5	1	C1b1	729	C1	U	1	71
5	1	C1c1	817	C1	F	0	72
6	1	V1c1	1606	V1	F	0	1
6	2	M2a2	3473	M2	T	1	2
6	2	M2c2	1690	M2	F	0	3
6	2	A2b2	1490	A2	U	0	4
6	L2	C1aL2	3073	C1	T	1	5
6	2	Q1a2	1258	Q1	T	1	6
6	3	Q2c3	1961	Q2	F	0	7
6	L1	C1aL1	1667	C1	T	1	8
6	2	A1b2	8019	A1	U	0	9
6	2	V1b2	1107	V1	U	1	10
6	3	C1c3	923	C1	F	0	11
6	3	A1c3	4862	A1	F	0	12
6	3	Q1a3	1496	Q1	T	1	13
6	1	M2a1	1283	M2	T	1	14
6	1	A1b1	5658	A1	U	1	15
6	R1	C1aR1	2732	C1	T	1	16
6	3	A1a3	2017	A1	T	1	17
6	2	A2c2	1444	A2	F	1	18
6	3	Q2b3	1942	Q2	U	1	19
6	3	Q2a3	996	Q2	T	1	20
6	3	V1b3	1674	V1	U	1	21
6	1	A1a1	857	A1	T	1	22
6	3	M2b3	1143	M2	U	0	23
6	3	Q1b3	573	Q1	U	1	24
6	2	C1b2	814	C1	U	1	25
6	2	M2b2	1090	M2	U	1	26
6	2	M1b2	1393	M1	U	1	27
6	3	M2c3	964	M2	F	0	28
6	1	C1c1	793	C1	F	0	29
6	3	V1a3	2243	V1	T	1	30
6	2	Q1c2	779	Q1	F	0	31
6	1	V1c1	971	V1	F	0	32
6	1	A2c1	1357	A2	F	1	33
6	2	A2a2	1290	A2	T	1	34
6	1	V1b1	978	V1	U	0	35
6	1	A2b1	901	A2	U	0	36
6	2	Q1b2	1525	Q1	U	1	37
6	3	A2b3	696	A2	U	0	38
6	1	Q2a1	975	Q2	T	1	39
6	1	Q1b1	1781	Q1	U	0	40
6	2	Q2b2	2211	Q2	U	0	41
6	3	A1b3	1395	A1	U	0	42
6	3	Q1c3	622	Q1	F	0	43
6	1	M2b1	997	M2	U	1	44
6	2	A1a2	694	A1	T	1	45
6	1	M1b1	456	M1	U	1	46
6	3	A2c3	646	A2	F	1	47
6	1	M2c1	716	M2	F	0	48
6	2	M1c2	900	M1	F	0	49
6	2	V1a2	730	V1	T	1	50
6	3	M1a3	707	M1	T	0	51
6	2	M1a2	690	M1	T	0	52
6	1	Q1a1	790	Q1	T	1	53
6	3	A2a3	883	A2	T	1	54
6	1	M1a1	587	M1	T	0	55
6	3	M1c3	718	M1	F	0	56
6	1	V1a1	732	V1	T	1	57
6	3	M2a3	1171	M2	T	1	58
6	1	C1b1	4766	C1	U	0	59
6	1	Q2b1	788	Q2	U	0	60
6	2	V1c2	711	V1	F	0	61
6	2	Q2c2	1012	Q2	F	0	62
6	3	C1b3	744	C1	U	0	63
6	1	A1c1	607	A1	F	0	64
6	3	M1b3	606	M1	U	1	65
6	1	Q1c1	696	Q1	F	0	66
6	1	Q2c1	1687	Q2	F	0	67
6	2	Q2a2	657	Q2	T	1	68
6	2	A1c2	596	A1	F	0	69
6	1	A2a1	1428	A2	T	1	70
6	2	C1c2	645	C1	F	0	71
6	1	M1c1	692	M1	F	0	72
7	1	V1c1	11882	V1	F	0	1
7	2	M1c2	2510	M1	F	0	2
7	3	Q2b3	1732	Q2	U	1	3
7	2	V1a2	1393	V1	T	1	4
7	1	Q2b1	959	Q2	U	1	5
7	2	Q1c2	1743	Q1	F	0	6
7	1	M1b1	1769	M1	U	1	7
7	1	V1b1	5117	V1	U	0	8
7	2	A2c2	1659	A2	F	1	9
7	1	M2a1	5720	M2	T	1	10
7	2	A1c2	1295	A1	F	0	11
7	3	A2c3	3105	A2	F	1	12
7	2	A2a2	1271	A2	T	1	13
7	3	V1b3	1961	V1	U	0	14
7	2	Q2c2	2156	Q2	F	0	15
7	2	Q2a2	1122	Q2	T	1	16
7	2	M1b2	882	M1	U	1	17
7	R1	C1aR1	4286	C1	T	1	18
7	2	Q1a2	1548	Q1	T	1	19
7	1	C1b1	2743	C1	U	0	20
7	1	A1c1	1660	A1	F	0	21
7	2	M2c2	1840	M2	F	0	22
7	3	V1a3	1251	V1	T	1	23
7	1	A1a1	1606	A1	T	1	24
7	3	Q1c3	1079	Q1	F	0	25
7	3	A1b3	1659	A1	U	0	26
7	1	A2c1	2365	A2	F	0	27
7	3	M1c3	2031	M1	F	0	28
7	3	A2b3	2423	A2	U	0	29
7	3	Q2c3	2588	Q2	F	0	30
7	3	M1a3	1857	M1	T	0	31
7	1	A1b1	1173	A1	U	0	32
7	3	Q1a3	738	Q1	T	1	33
7	1	Q1a1	983	Q1	T	1	34
7	1	Q1b1	1419	Q1	U	0	35
7	1	M1c1	1638	M1	F	0	36
7	2	A2b2	1464	A2	U	0	37
7	L2	C1aL2	978	C1	T	1	38
7	3	Q1b3	1053	Q1	U	0	39
7	2	M2a2	2230	M2	T	1	40
7	3	M2c3	1109	M2	F	0	41
7	1	C1c1	1110	C1	F	0	42
7	2	Q2b2	4395	Q2	U	0	43
7	1	A2b1	1208	A2	U	0	44
7	2	M1a2	11776	M1	T	0	45
7	2	A1b2	875	A1	U	0	46
7	2	C1c2	973	C1	F	0	47
7	3	C1c3	681	C1	F	0	48
7	2	A1a2	1262	A1	T	1	49
7	3	M1b3	1181	M1	U	1	50
7	3	C1b3	759	C1	U	0	51
7	1	A2a1	996	A2	T	1	52
7	1	Q2a1	2051	Q2	T	1	53
7	3	A1a3	860	A1	T	1	54
7	1	Q1c1	750	Q1	F	0	55
7	3	A2a3	872	A2	T	1	56
7	1	M1a1	1381	M1	T	0	57
7	L1	C1aL1	1016	C1	T	1	58
7	3	M2a3	1681	M2	T	1	59
7	2	Q1b2	1117	Q1	U	0	60
7	2	M2b2	3105	M2	U	1	61
7	1	M2b1	1017	M2	U	1	62
7	3	Q2a3	1494	Q2	T	0	63
7	3	A1c3	1626	A1	F	0	64
7	2	C1b2	857	C1	U	0	65
7	1	V1c1	1349	V1	F	0	66
7	3	M2b3	1635	M2	U	0	67
7	2	V1b2	1315	V1	U	0	68
7	1	Q2c1	1633	Q2	F	0	69
7	2	V1c2	1280	V1	F	0	70
7	1	M2c1	1175	M2	F	0	71
7	1	V1a1	775	V1	T	1	72
8	1	V1c1	4675	V1	F	0	1
8	3	Q2b3	1608	Q2	U	1	2
8	3	M2b3	2091	M2	U	1	3
8	2	Q1a2	1530	Q1	T	1	4
8	2	M2a2	1962	M2	T	1	5
8	3	M1b3	3112	M1	U	0	6
8	3	V1a3	1322	V1	T	1	7
8	1	V1b1	2460	V1	U	0	8
8	1	M2b1	2283	M2	U	0	9
8	2	A1a2	1417	A1	T	1	10
8	3	M1c3	2571	M1	F	0	11
8	3	A1b3	1483	A1	U	1	12
8	3	M2c3	1403	M2	F	0	13
8	3	Q1c3	1115	Q1	F	0	14
8	2	Q2a2	1323	Q2	T	1	15
8	3	M2a3	1227	M2	T	1	16
8	1	M1c1	1271	M1	F	0	17
8	2	Q1b2	2637	Q1	U	0	18
8	3	C1c3	2277	C1	F	1	19
8	2	Q1c2	1099	Q1	F	0	20
8	2	Q2b2	2269	Q2	U	0	21
8	1	Q2b1	1562	Q2	U	0	22
8	1	M1a1	1275	M1	T	0	23
8	2	M2c2	1883	M2	F	0	24
8	2	M1c2	1435	M1	F	0	25
8	2	Q2c2	1914	Q2	F	0	26
8	L1	C1aL1	1931	C1	T	1	27
8	3	A2b3	1917	A2	U	0	28
8	2	C1c2	1467	C1	F	1	29
8	1	V1a1	1399	V1	T	1	30
8	3	Q1a3	1098	Q1	T	1	31
8	3	M1a3	1037	M1	T	0	32
8	2	C1b2	1338	C1	U	1	33
8	3	A1a3	936	A1	T	1	34
8	1	A1a1	859	A1	T	1	35
8	3	Q1b3	1035	Q1	U	0	36
8	1	C1c1	1196	C1	F	0	37
8	2	A2b2	1659	A2	U	0	38
8	3	A2c3	1803	A2	F	0	39
8	1	V1c1	1141	V1	F	0	40
8	1	M2c1	1149	M2	F	0	41
8	2	M1a2	951	M1	T	0	42
8	3	A2a3	1209	A2	T	1	43
8	1	A1c1	1193	A1	F	0	44
8	1	A1b1	955	A1	U	1	45
8	2	A2a2	1117	A2	T	1	46
8	1	A2a1	1051	A2	T	1	47
8	3	Q2c3	1195	Q2	F	0	48
8	1	Q2a1	1035	Q2	T	1	49
8	2	V1c2	1034	V1	F	0	50
8	2	A2c2	1661	A2	F	0	51
8	2	M2b2	1592	M2	U	0	52
8	1	Q2c1	1915	Q2	F	1	53
8	3	Q2a3	1067	Q2	T	1	54
8	1	A2c1	1275	A2	F	0	55
8	3	A1c3	1593	A1	F	0	56
8	2	V1b2	956	V1	U	0	57
8	1	M1b1	2043	M1	U	1	58
8	1	C1b1	1035	C1	U	1	59
8	3	V1b3	1132	V1	U	0	60
8	1	Q1a1	1432	Q1	T	1	61
8	L2	C1aL2	1434	C1	T	1	62
8	1	M2a1	1163	M2	T	1	63
8	2	A1b2	939	A1	U	1	64
8	1	Q1c1	1033	Q1	F	0	65
8	1	Q1b1	1099	Q1	U	0	66
8	R1	C1aR1	971	C1	T	1	67
8	2	V1a2	1131	V1	T	1	68
8	3	C1b3	1371	C1	U	0	69
8	2	A1c2	987	A1	F	0	70
8	1	A2b1	921	A2	U	0	71
8	2	M1b2	1195	M1	U	1	72
9	1	V1c1	4384	V1	F	0	1
9	3	C1b3	1740	C1	U	1	2
9	2	C1b2	4410	C1	U	1	3
9	2	Q1a2	1086	Q1	T	1	4
9	1	Q2a1	1293	Q2	T	1	5
9	R1	C1aR1	1069	C1	T	1	6
9	2	M2b2	1588	M2	U	1	7
9	3	C1c3	3166	C1	F	0	8
9	3	V1a3	1221	V1	T	1	9
9	1	M1c1	1315	M1	F	0	10
9	1	C1b1	858	C1	U	1	11
9	1	M2c1	1340	M2	F	0	12
9	2	A2b2	1310	A2	U	1	13
9	2	Q1b2	1252	Q1	U	0	14
9	2	A1c2	940	A1	F	0	15
9	3	M2a3	1660	M2	T	1	16
9	1	M1b1	1403	M1	U	1	17
9	3	A1a3	941	A1	T	1	18
9	2	V1c2	2294	V1	F	1	19
9	1	A2a1	1237	A2	T	1	20
9	2	M2a2	966	M2	T	1	21
9	3	M2b3	1276	M2	U	0	22
9	1	A1b1	1263	A1	U	1	23
9	1	A1c1	868	A1	F	0	24
9	3	V1b3	1309	V1	U	1	25
9	2	A2c2	1072	A2	F	0	26
9	2	M1b2	638	M1	U	1	27
9	1	Q1b1	942	Q1	U	0	28
9	1	V1b1	1139	V1	U	1	29
9	3	M1b3	610	M1	U	1	30
9	1	Q2c1	1506	Q2	F	0	31
9	2	M1c2	1909	M1	F	0	32
9	2	C1c2	1581	C1	F	0	33
9	1	A2c1	1165	A2	F	0	34
9	2	V1a2	1110	V1	T	0	35
9	1	M2a1	893	M2	T	1	36
9	2	V1b2	902	V1	U	1	37
9	3	Q2c3	1581	Q2	F	0	38
9	1	Q1a1	854	Q1	T	1	39
9	3	Q2b3	1270	Q2	U	1	40
9	2	Q1c2	822	Q1	F	0	41
9	3	A2c3	1407	A2	F	0	42
9	3	A1b3	825	A1	U	1	43
9	3	Q2a3	759	Q2	T	1	44
9	3	Q1a3	621	Q1	T	1	45
9	2	A2a2	741	A2	T	1	46
9	1	V1a1	915	V1	T	1	47
9	1	A2b1	1302	A2	U	1	48
9	1	V1c1	3134	V1	F	0	49
9	2	Q2c2	1414	Q2	F	0	50
9	2	M2c2	1037	M2	F	0	51
9	1	M1a1	1286	M1	T	1	52
9	1	C1c1	1494	C1	F	0	53
9	3	Q1c3	987	Q1	F	0	54
9	3	A2b3	1151	A2	U	1	55
9	1	A1a1	1854	A1	T	1	56
9	2	M1a2	543	M1	T	1	57
9	3	M1c3	1461	M1	F	0	58
9	1	Q2b1	1165	Q2	U	1	59
9	3	A2a3	972	A2	T	1	60
9	2	A1b2	341	A1	U	1	61
9	L1	C1aL1	478	C1	T	1	62
9	1	M2b1	1063	M2	U	1	63
9	1	Q1c1	997	Q1	F	0	64
9	3	M2c3	1077	M2	F	0	65
9	3	Q1b3	1129	Q1	U	1	66
9	2	Q2a2	1215	Q2	T	1	67
9	2	A1a2	404	A1	T	1	68
9	L2	C1aL2	925	C1	T	1	69
9	3	M1a3	476	M1	T	1	70
9	3	A1c3	477	A1	F	1	71
9	2	Q2b2	516	Q2	U	1	72
10	1	V1c1	3567	V1	F	0	1
10	2	M2b2	1428	M2	U	0	2
10	1	A2a1	1451	A2	T	1	3
10	1	C1b1	1347	C1	U	1	4
10	1	Q1a1	813	Q1	T	1	5
10	1	V1c1	1109	V1	F	0	6
10	1	Q1b1	1028	Q1	U	0	7
10	3	Q2b3	901	Q2	U	0	8
10	3	C1b3	1051	C1	U	1	9
10	L2	C1aL2	1274	C1	T	0	10
10	2	Q2b2	1125	Q2	U	0	11
10	2	Q1a2	1245	Q1	T	1	12
10	3	Q1b3	1018	Q1	U	0	13
10	1	M1c1	1797	M1	F	0	14
10	3	A1b3	1005	A1	U	1	15
10	2	V1a2	1277	V1	T	1	16
10	2	Q1b2	941	Q1	U	0	17
10	3	M1a3	1578	M1	T	1	18
10	3	C1c3	916	C1	F	0	19
10	3	A2a3	779	A2	T	1	20
10	3	A1c3	669	A1	F	0	21
10	2	C1b2	684	C1	U	1	22
10	1	Q2b1	1908	Q2	U	1	23
10	3	M1c3	725	M1	F	0	24
10	2	M2a2	908	M2	T	1	25
10	2	A2c2	843	A2	F	0	26
10	3	Q1c3	653	Q1	F	0	27
10	2	V1b2	732	V1	U	0	28
10	3	M1b3	789	M1	U	1	29
10	2	A1c2	796	A1	F	0	30
10	L1	C1aL1	581	C1	T	1	31
10	2	A1a2	667	A1	T	1	32
10	1	Q2a1	987	Q2	T	1	33
10	2	Q2c2	765	Q2	F	0	34
10	1	A2b1	2435	A2	U	1	35
10	1	A1b1	614	A1	U	1	36
10	1	A1c1	822	A1	F	0	37
10	2	Q2a2	883	Q2	T	1	38
10	2	M1c2	685	M1	F	0	39
10	R1	C1aR1	940	C1	T	0	40
10	3	M2a3	805	M2	T	1	41
10	3	Q2a3	1081	Q2	T	1	42
10	1	M2b1	1997	M2	U	0	43
10	2	M1b2	803	M1	U	1	44
10	1	M2a1	756	M2	T	1	45
10	3	A1a3	518	A1	T	1	46
10	2	C1c2	845	C1	F	0	47
10	1	A2c1	846	A2	F	0	48
10	2	A2a2	573	A2	T	1	49
10	2	A2b2	653	A2	U	0	50
10	1	V1b1	1029	V1	U	0	51
10	3	M2c3	1285	M2	F	0	52
10	1	Q1c1	611	Q1	F	0	53
10	2	M2c2	678	M2	F	0	54
10	3	Q2c3	965	Q2	F	1	55
10	3	M2b3	1379	M2	U	0	56
10	1	A1a1	509	A1	T	1	57
10	1	M1a1	717	M1	T	1	58
10	3	A2b3	633	A2	U	0	59
10	3	A2c3	813	A2	F	0	60
10	1	V1a1	540	V1	T	1	61
10	1	M2c1	755	M2	F	0	62
10	2	V1c2	652	V1	F	0	63
10	3	V1a3	547	V1	T	1	64
10	2	A1b2	837	A1	U	1	65
10	3	V1b3	629	V1	U	0	66
10	1	Q2c1	740	Q2	F	0	67
10	2	Q1c2	749	Q1	F	0	68
10	1	C1c1	629	C1	F	0	69
10	1	M1b1	589	M1	U	1	70
10	3	Q1a3	594	Q1	T	1	71
10	2	M1a2	565	M1	T	1	72
11	1	V1c1	2738	V1	F	0	1
11	1	M2a1	4245	M2	T	1	2
11	1	M2c1	1409	M2	F	0	3
11	3	Q2b3	1208	Q2	U	1	4
11	3	A1c3	1080	A1	F	0	5
11	3	C1c3	1584	C1	F	0	6
11	3	C1b3	818	C1	U	1	7
11	2	M1b2	1636	M1	U	1	8
11	L2	C1aL2	1471	C1	T	1	9
11	3	M2a3	1870	M2	T	1	10
11	3	Q1c3	1024	Q1	F	0	11
11	1	M1b1	793	M1	U	1	12
11	2	C1b2	1013	C1	U	1	13
11	1	A2b1	2365	A2	U	1	14
11	2	Q1c2	777	Q1	F	0	15
11	2	Q2c2	1617	Q2	F	0	16
11	1	A2c1	1875	A2	F	0	17
11	1	C1b1	814	C1	U	1	18
11	2	V1b2	1132	V1	U	1	19
11	1	A1c1	884	A1	F	0	20
11	3	M1c3	1671	M1	F	0	21
11	3	A1b3	1147	A1	U	1	22
11	3	A2b3	2094	A2	U	1	23
11	2	C1c2	914	C1	F	0	24
11	3	V1b3	804	V1	U	1	25
11	1	Q1c1	682	Q1	F	0	26
11	1	Q2b1	1559	Q2	U	1	27
11	3	A2a3	1835	A2	T	1	28
11	1	C1c1	1145	C1	F	0	29
11	3	Q2a3	1211	Q2	T	1	30
11	2	A2b2	1080	A2	U	1	31
11	1	M1a1	2865	M1	T	1	32
11	1	V1a1	1318	V1	T	1	33
11	1	V1b1	898	V1	U	1	34
11	1	Q1b1	1672	Q1	U	1	35
11	1	A1a1	1482	A1	T	1	36
11	1	Q2a1	875	Q2	T	1	37
11	1	V1c1	923	V1	F	0	38
11	2	M2c2	905	M2	F	0	39
11	2	V1c2	938	V1	F	0	40
11	2	Q1a2	1419	Q1	T	1	41
11	R1	C1aR1	1244	C1	T	1	42
11	2	M1a2	997	M1	T	1	43
11	3	M1b3	709	M1	U	1	44
11	3	M1a3	898	M1	T	1	45
11	2	Q2b2	871	Q2	U	1	46
11	3	M2b3	1172	M2	U	1	47
11	1	A2a1	905	A2	T	1	48
11	L1	C1aL1	879	C1	T	1	49
11	1	M2b1	787	M2	U	1	50
11	3	M2c3	781	M2	F	0	51
11	2	A2c2	1172	A2	F	0	52
11	3	A1a3	1332	A1	T	1	53
11	2	M2a2	907	M2	T	1	54
11	3	Q1a3	810	Q1	T	1	55
11	1	Q2c1	1118	Q2	F	0	56
11	2	Q1b2	839	Q1	U	1	57
11	2	A2a2	782	A2	T	1	58
11	1	M1c1	827	M1	F	0	59
11	1	A1b1	1032	A1	U	1	60
11	2	M2b2	617	M2	U	1	61
11	3	Q2c3	1060	Q2	F	0	62
11	2	M1c2	913	M1	F	0	63
11	2	A1b2	934	A1	U	1	64
11	2	A1c2	740	A1	F	0	65
11	3	V1a3	766	V1	T	1	66
11	3	A2c3	734	A2	F	0	67
11	2	A1a2	938	A1	T	1	68
11	1	Q1a1	742	Q1	T	1	69
11	2	V1a2	781	V1	T	1	70
11	3	Q1b3	1083	Q1	U	1	71
11	2	Q2a2	1110	Q2	T	1	72
12	1	V1c1	3494	V1	F	0	1
12	3	A1b3	5187	A1	U	0	2
12	2	M2b2	4880	M2	U	0	3
12	2	Q2b2	2508	Q2	U	0	4
12	2	M2a2	1974	M2	T	1	5
12	1	V1b1	2831	V1	U	1	6
12	3	M2b3	1399	M2	U	0	7
12	2	A2b2	1791	A2	U	0	8
12	2	A1a2	1476	A1	T	1	9
12	1	M1c1	2179	M1	F	0	10
12	3	V1a3	1446	V1	T	1	11
12	2	C1b2	2762	C1	U	1	12
12	2	Q1b2	1912	Q1	U	0	13
12	1	M2c1	1407	M2	F	0	14
12	2	Q1c2	1123	Q1	F	0	15
12	3	M1a3	2599	M1	T	0	16
12	3	C1b3	1322	C1	U	0	17
12	2	M2c2	997	M2	F	0	18
12	1	C1c1	1104	C1	F	0	19
12	2	Q2c2	2119	Q2	F	0	20
12	1	A1b1	1859	A1	U	0	21
12	3	M2a3	1547	M2	T	1	22
12	2	M1a2	1343	M1	T	0	23
12	3	M1c3	1494	M1	F	0	24
12	2	A2c2	1577	A2	F	0	25
12	1	M1a1	1721	M1	T	0	26
12	3	Q2a3	1867	Q2	T	1	27
12	1	C1b1	1154	C1	U	0	28
12	2	M1c2	1510	M1	F	0	29
12	1	A1c1	1353	A1	F	0	30
12	3	M1b3	1944	M1	U	1	31
12	2	A1c2	1032	A1	F	0	32
12	1	Q2c1	1374	Q2	F	0	33
12	3	Q2c3	1376	Q2	F	0	34
12	3	Q2b3	2429	Q2	U	0	35
12	L1	C1aL1	2201	C1	T	1	36
12	1	A1a1	1307	A1	T	1	37
12	1	Q2b1	1607	Q2	U	0	38
12	3	A2c3	1829	A2	F	0	39
12	3	C1c3	1959	C1	F	0	40
12	1	A2b1	1560	A2	U	0	41
12	3	Q1c3	1060	Q1	F	0	42
12	1	M2a1	1337	M2	T	1	43
12	3	V1b3	5384	V1	U	1	44
12	3	A2a3	1472	A2	T	1	45
12	2	Q2a2	1461	Q2	T	1	46
12	1	Q1c1	847	Q1	F	0	47
12	2	M1b2	1221	M1	U	1	48
12	2	A1b2	1131	A1	U	0	49
12	1	Q1a1	2015	Q1	T	1	50
12	2	C1c2	1387	C1	F	0	51
12	L2	C1aL2	1264	C1	T	1	52
12	3	M2c3	733	M2	F	0	53
12	1	M1b1	855	M1	U	1	54
12	3	Q1a3	1571	Q1	T	1	55
12	1	V1a1	1804	V1	T	1	56
12	3	Q1b3	826	Q1	U	0	57
12	1	A2c1	1052	A2	F	0	58
12	1	Q1b1	1685	Q1	U	0	59
12	2	V1c2	1222	V1	F	0	60
12	2	V1b2	1365	V1	U	0	61
12	1	Q2a1	3173	Q2	T	1	62
12	1	V1c1	968	V1	F	0	63
12	2	V1a2	910	V1	T	1	64
12	R1	C1aR1	1391	C1	T	1	65
12	1	A2a1	747	A2	T	1	66
12	2	A2a2	756	A2	T	1	67
12	3	A1a3	1004	A1	T	1	68
12	2	Q1a2	604	Q1	T	1	69
12	3	A1c3	764	A1	F	0	70
12	3	A2b3	818	A2	U	0	71
12	1	M2b1	1022	M2	U	0	72
13	1	V1c1	5120	V1	F	0	1
13	3	Q1b3	2575	Q1	U	0	2
13	2	V1a2	885	V1	T	1	3
13	2	C1b2	1811	C1	U	1	4
13	2	A2b2	2695	A2	U	1	5
13	1	M2a1	1297	M2	T	1	6
13	2	A2c2	1015	A2	F	0	7
13	2	Q2a2	1131	Q2	T	1	8
13	3	Q2b3	2936	Q2	U	1	9
13	3	A2c3	939	A2	F	0	10
13	1	A1a1	811	A1	T	1	11
13	3	V1a3	832	V1	T	1	12
13	3	A2a3	762	A2	T	1	13
13	3	M1c3	1692	M1	F	0	14
13	2	M1b2	720	M1	U	1	15
13	2	M1a2	1035	M1	T	1	16
13	1	V1a1	633	V1	T	1	17
13	1	Q2c1	696	Q2	F	0	18
13	2	A1c2	690	A1	F	0	19
13	1	M1b1	673	M1	U	1	20
13	1	A2a1	676	A2	T	1	21
13	1	A1c1	574	A1	F	0	22
13	3	M2b3	2089	M2	U	1	23
13	2	V1c2	574	V1	F	0	24
13	2	A1a2	588	A1	T	1	25
13	3	M2a3	751	M2	T	1	26
13	1	A2b1	779	A2	U	1	27
13	3	C1c3	1157	C1	F	0	28
13	3	Q1c3	647	Q1	F	0	29
13	2	Q1c2	770	Q1	F	0	30
13	3	C1b3	577	C1	U	1	31
13	2	Q1b2	1381	Q1	U	0	32
13	3	A1a3	474	A1	T	1	33
13	3	Q2a3	699	Q2	T	1	34
13	1	V1c1	544	V1	F	0	35
13	1	C1c1	745	C1	F	0	36
13	2	Q2c2	707	Q2	F	0	37
13	2	Q2b2	420	Q2	U	1	38
13	3	M1b3	388	M1	U	1	39
13	1	A2c1	757	A2	F	0	40
13	3	A2b3	1076	A2	U	1	41
13	L2	C1aL2	3020	C1	T	1	42
13	1	A1b1	754	A1	U	1	43
13	1	V1b1	1294	V1	U	1	44
13	2	Q1a2	547	Q1	T	1	45
13	1	C1b1	567	C1	U	1	46
13	3	M1a3	625	M1	T	1	47
13	1	Q1a1	463	Q1	T	1	48
13	1	M2c1	630	M2	F	0	49
13	2	M2b2	606	M2	U	1	50
13	2	M2a2	414	M2	T	1	51
13	1	Q2a1	471	Q2	T	1	52
13	1	Q2b1	1053	Q2	U	0	53
13	R1	C1aR1	605	C1	T	1	54
13	3	A1b3	567	A1	U	1	55
13	L1	C1aL1	586	C1	T	1	56
13	2	M2c2	484	M2	F	0	57
13	1	M1a1	619	M1	T	1	58
13	2	M1c2	575	M1	F	0	59
13	2	A1b2	524	A1	U	1	60
13	1	Q1c1	437	Q1	F	0	61
13	3	Q1a3	422	Q1	T	1	62
13	1	Q1b1	803	Q1	U	0	63
13	2	V1b2	655	V1	U	1	64
13	2	A2a2	461	A2	T	1	65
13	3	Q2c3	747	Q2	F	0	66
13	3	A1c3	523	A1	F	0	67
13	3	V1b3	555	V1	U	1	68
13	1	M2b1	622	M2	U	1	69
13	2	C1c2	635	C1	F	0	70
13	3	M2c3	537	M2	F	0	71
13	1	M1c1	536	M1	F	0	72
14	1	V1c1	3595	V1	F	0	1
14	3	A1c3	3098	A1	F	0	2
14	1	A2c1	1885	A2	F	0	3
14	3	Q2a3	1709	Q2	T	1	4
14	3	M2c3	1661	M2	F	0	5
14	1	A2b1	1277	A2	U	1	6
14	3	Q2b3	2782	Q2	U	0	7
14	L1	C1aL1	2253	C1	T	1	8
14	R1	C1aR1	1932	C1	T	1	9
14	2	Q1a2	1305	Q1	T	1	10
14	3	Q1b3	1773	Q1	U	0	11
14	2	A2c2	1515	A2	F	0	12
14	1	M2b1	1788	M2	U	0	13
14	1	V1b1	2092	V1	U	1	14
14	2	A2a2	1326	A2	T	1	15
14	3	A2b3	2588	A2	U	1	16
14	2	Q2c2	1581	Q2	F	0	17
14	3	Q1c3	1470	Q1	F	0	18
14	1	A2a1	1211	A2	T	1	19
14	L2	C1aL2	2396	C1	T	0	20
14	3	Q1a3	1068	Q1	T	1	21
14	3	C1b3	2461	C1	U	0	22
14	2	A2b2	2237	A2	U	1	23
14	2	M1c2	2110	M1	F	0	24
14	1	A1c1	1116	A1	F	0	25
14	1	M1a1	2189	M1	T	1	26
14	1	M2c1	1198	M2	F	0	27
14	2	A1a2	924	A1	T	1	28
14	2	V1a2	1326	V1	T	1	29
14	2	M1b2	1724	M1	U	1	30
14	2	A1c2	862	A1	F	0	31
14	2	M2b2	1326	M2	U	0	32
14	2	M1a2	1020	M1	T	1	33
14	1	C1b1	2156	C1	U	0	34
14	2	A1b2	1484	A1	U	1	35
14	1	Q2b1	1437	Q2	U	0	36
14	1	A1b1	1038	A1	U	1	37
14	1	A1a1	827	A1	T	1	38
14	2	V1b2	1407	V1	U	1	39
14	1	Q1b1	1070	Q1	U	0	40
14	3	A2c3	11022	A2	F	1	41
14	3	A1a3	906	A1	T	1	42
14	2	Q1b2	859	Q1	U	0	43
14	2	Q1c2	1118	Q1	F	0	44
14	1	M1b1	798	M1	U	1	45
14	1	Q2a1	1550	Q2	T	1	46
14	3	M2a3	1404	M2	T	1	47
14	3	V1b3	1101	V1	U	1	48
14	1	Q1a1	716	Q1	T	1	49
14	1	C1c1	1103	C1	F	0	50
14	3	M1b3	861	M1	U	1	51
14	1	Q1c1	1021	Q1	F	0	52
14	2	V1c2	1470	V1	F	0	53
14	2	Q2b2	1068	Q2	U	0	54
14	3	C1c3	972	C1	F	0	55
14	1	Q2c1	1422	Q2	F	0	56
14	2	Q2a2	732	Q2	T	1	57
14	1	M1c1	891	M1	F	0	58
14	1	M2a1	717	M2	T	1	59
14	3	M1c3	1614	M1	F	0	60
14	3	A2a3	749	A2	T	1	61
14	3	M1a3	829	M1	T	1	62
14	2	C1b2	2221	C1	U	0	63
14	2	C1c2	990	C1	F	0	64
14	1	V1a1	1086	V1	T	1	65
14	2	M2c2	1005	M2	F	0	66
14	3	M2b3	1582	M2	U	0	67
14	1	V1c1	973	V1	F	0	68
14	3	A1b3	797	A1	U	1	69
14	3	V1a3	781	V1	T	1	70
14	2	M2a2	765	M2	T	1	71
14	3	Q2c3	1501	Q2	F	0	72
15	1	V1c1	2864	V1	F	0	1
15	1	M1c1	2964	M1	F	0	2
15	1	M2c1	2429	M2	F	0	3
15	3	M1c3	1550	M1	F	0	4
15	1	Q2b1	2782	Q2	U	0	5
15	3	A2b3	8357	A2	U	1	6
15	2	A1b2	10072	A1	U	1	7
15	2	Q1c2	2096	Q1	F	0	8
15	3	A2a3	1888	A2	T	1	9
15	3	M1b3	1456	M1	U	1	10
15	L1	C1aL1	5422	C1	T	1	11
15	2	M2c2	1616	M2	F	0	12
15	2	M2a2	2682	M2	T	1	13
15	R1	C1aR1	9510	C1	T	1	14
15	3	A1a3	1146	A1	T	1	15
15	2	Q2a2	951	Q2	T	1	16
15	3	M2a3	2533	M2	T	1	17
15	2	C1c2	6655	C1	F	0	18
15	1	A1b1	2340	A1	U	0	19
15	2	Q1b2	1651	Q1	U	1	20
15	3	Q1c3	1199	Q1	F	0	21
15	1	Q1b1	1591	Q1	U	0	22
15	3	Q2a3	1558	Q2	T	1	23
15	1	M2b1	2432	M2	U	0	24
15	2	A2c2	1509	A2	F	0	25
15	1	A2c1	1749	A2	F	0	26
15	3	Q2b3	2001	Q2	U	0	27
15	2	A1a2	1297	A1	T	1	28
15	1	M1b1	776	M1	U	1	29
15	1	Q1a1	11624	Q1	T	1	30
15	3	V1a3	1746	V1	T	1	31
15	2	A1c2	1508	A1	F	0	32
15	3	C1c3	1619	C1	F	0	33
15	2	V1b2	2977	V1	U	0	34
15	1	Q2c1	2070	Q2	F	0	35
15	2	Q2c2	1414	Q2	F	0	36
15	1	A2a1	2070	A2	T	1	37
15	3	M1a3	2619	M1	T	0	38
15	2	Q1a2	3264	Q1	T	1	39
15	2	M1c2	2412	M1	F	0	40
15	1	V1b1	1784	V1	U	0	41
15	1	C1c1	1274	C1	F	0	42
15	2	M1a2	1173	M1	T	0	43
15	1	M1a1	1322	M1	T	0	44
15	1	Q1c1	1576	Q1	F	0	45
15	3	A1b3	1174	A1	U	0	46
15	1	M2a1	1187	M2	T	1	47
15	1	A2b1	7029	A2	U	0	48
15	2	A2b2	1440	A2	U	0	49
15	3	Q1a3	1975	Q1	T	1	50
15	L2	C1aL2	4277	C1	T	1	51
15	2	V1a2	955	V1	T	1	52
15	2	Q2b2	1441	Q2	U	0	53
15	1	V1a1	819	V1	T	1	54
15	3	C1b3	2680	C1	U	0	55
15	1	A1c1	1456	A1	F	0	56
15	2	M1b2	937	M1	U	1	57
15	2	V1c2	1443	V1	F	0	58
15	3	A1c3	1276	A1	F	0	59
15	3	V1b3	2249	V1	U	0	60
15	3	Q1b3	1289	Q1	U	0	61
15	2	C1b2	3756	C1	U	1	62
15	3	Q2c3	1558	Q2	F	0	63
15	3	A2c3	1760	A2	F	0	64
15	3	M2c3	1912	M2	F	0	65
15	1	A1a1	2387	A1	T	1	66
15	1	V1c1	1688	V1	F	0	67
15	1	Q2a1	1146	Q2	T	1	68
15	1	C1b1	1544	C1	U	0	69
15	3	M2b3	2376	M2	U	0	70
15	2	A2a2	2125	A2	T	1	71
15	2	M2b2	1395	M2	U	0	72
16	1	V1c1	1026	V1	F	1	1
16	3	V1a3	3157	V1	T	1	2
16	1	V1c1	2933	V1	F	0	3
16	1	M2c1	3982	M2	F	0	4
16	3	M1c3	5253	M1	F	0	5
16	1	A2a1	5641	A2	T	0	6
16	1	C1b1	3838	C1	U	1	7
16	2	M1c2	3126	M1	F	0	8
16	3	Q1b3	1591	Q1	U	1	9
16	1	Q1c1	1402	Q1	F	0	10
16	3	C1c3	1374	C1	F	0	11
16	1	A1c1	2486	A1	F	0	12
16	3	Q2a3	1727	Q2	T	1	13
16	L1	C1aL1	2038	C1	T	1	14
16	3	Q1a3	1711	Q1	T	1	15
16	3	M1a3	4086	M1	T	1	16
16	3	M1b3	1662	M1	U	1	17
16	3	Q1c3	1366	Q1	F	0	18
16	2	C1c2	1404	C1	F	0	19
16	2	Q1b2	1237	Q1	U	1	20
16	3	C1b3	1165	C1	U	1	21
16	3	M2a3	2213	M2	T	0	22
16	3	Q2c3	2693	Q2	F	0	23
16	1	V1a1	1446	V1	T	1	24
16	2	M1b2	1319	M1	U	1	25
16	1	M1c1	1502	M1	F	0	26
16	2	M1a2	1294	M1	T	0	27
16	2	M2b2	1640	M2	U	1	28
16	2	Q1a2	2405	Q1	T	1	29
16	2	M2a2	2052	M2	T	0	30
16	1	Q1a1	1247	Q1	T	1	31
16	3	A2a3	1742	A2	T	0	32
16	2	Q2b2	1180	Q2	U	1	33
16	2	Q2a2	1279	Q2	T	1	34
16	1	Q2c1	1990	Q2	F	1	35
16	2	Q2c2	3286	Q2	F	0	36
16	2	V1b2	2117	V1	U	1	37
16	R1	C1aR1	2750	C1	T	1	38
16	1	M1b1	1374	M1	U	1	39
16	1	A2b1	2319	A2	U	0	40
16	2	A2b2	1886	A2	U	0	41
16	3	Q2b3	1253	Q2	U	1	42
16	1	A1a1	1886	A1	T	1	43
16	3	A2b3	1486	A2	U	0	44
16	1	M2b1	1494	M2	U	1	45
16	3	M2b3	1406	M2	U	1	46
16	3	M2c3	1526	M2	F	0	47
16	2	A2c2	1352	A2	F	1	48
16	2	V1c2	1869	V1	F	0	49
16	2	M2c2	1455	M2	F	0	50
16	1	C1c1	1468	C1	F	0	51
16	1	M1a1	1957	M1	T	0	52
16	2	A1c2	1151	A1	F	0	53
16	1	Q1b1	1200	Q1	U	1	54
16	2	A1a2	1693	A1	T	1	55
16	2	Q1c2	1528	Q1	F	0	56
16	1	Q2a1	1270	Q2	T	1	57
16	1	M2a1	1543	M2	T	0	58
16	1	A1b1	2325	A1	U	0	59
16	1	V1b1	1767	V1	U	0	60
16	1	A2c1	1910	A2	F	0	61
16	3	A2c3	1366	A2	F	0	62
16	2	A1b2	1742	A1	U	1	63
16	1	Q2b1	1129	Q2	U	1	64
16	3	V1b3	1775	V1	U	0	65
16	3	A1a3	1262	A1	T	1	66
16	3	A1c3	1374	A1	F	0	67
16	2	C1b2	1349	C1	U	1	68
16	2	V1a2	1405	V1	T	1	69
16	L2	C1aL2	2015	C1	T	1	70
16	3	A1b3	2680	A1	U	1	71
16	2	A2a2	1495	A2	T	0	72
17	1	V1c1	2169	V1	F	0	1
17	1	A2b1	1882	A2	U	1	2
17	1	A2a1	1477	A2	T	1	3
17	R1	C1aR1	2164	C1	T	1	4
17	2	V1b2	1442	V1	U	1	5
17	2	M1b2	1277	M1	U	1	6
17	2	Q1a2	1121	Q1	T	1	7
17	2	A2c2	1163	A2	F	0	8
17	3	M2b3	2360	M2	U	1	9
17	3	A1a3	1422	A1	T	1	10
17	3	M1b3	972	M1	U	1	11
17	1	M2c1	1708	M2	F	0	12
17	1	Q1a1	1053	Q1	T	1	13
17	1	Q2a1	1269	Q2	T	1	14
17	1	V1c1	1361	V1	F	0	15
17	L1	C1aL1	1178	C1	T	1	16
17	3	A2c3	1055	A2	F	0	17
17	1	V1b1	1039	V1	U	1	18
17	2	V1a2	2275	V1	T	1	19
17	1	A2c1	1099	A2	F	0	20
17	2	V1c2	1496	V1	F	0	21
17	3	Q2c3	1446	Q2	F	0	22
17	1	A1c1	1239	A1	F	0	23
17	1	M1c1	1295	M1	F	0	24
17	1	C1b1	2506	C1	U	0	25
17	1	Q2c1	1263	Q2	F	0	26
17	2	Q2a2	820	Q2	T	1	27
17	3	V1b3	3761	V1	U	0	28
17	1	M1a1	1188	M1	T	0	29
17	3	M1c3	1827	M1	F	0	30
17	2	M1a2	1055	M1	T	0	31
17	2	Q1b2	2099	Q1	U	1	32
17	3	M2c3	1286	M2	F	0	33
17	2	M2b2	937	M2	U	1	34
17	1	Q2b1	1736	Q2	U	1	35
17	3	Q2a3	1212	Q2	T	1	36
17	3	C1b3	1142	C1	U	1	37
17	1	C1c1	1491	C1	F	0	38
17	3	Q1b3	1159	Q1	U	1	39
17	2	Q2b2	1055	Q2	U	1	40
17	L2	C1aL2	1144	C1	T	1	41
17	3	A1b3	1625	A1	U	1	42
17	2	A1a2	906	A1	T	1	43
17	3	Q1a3	4466	Q1	T	1	44
17	2	M1c2	1056	M1	F	0	45
17	2	M2a2	1307	M2	T	1	46
17	1	A1b1	1126	A1	U	1	47
17	2	C1c2	1436	C1	F	0	48
17	2	A1c2	995	A1	F	0	49
17	3	A2b3	1840	A2	U	1	50
17	1	M2b1	645	M2	U	1	51
17	2	C1b2	912	C1	U	1	52
17	3	C1c3	767	C1	F	0	53
17	1	V1a1	1292	V1	T	1	54
17	2	Q1c2	2276	Q1	F	0	55
17	3	M2a3	903	M2	T	1	56
17	2	A2a2	1159	A2	T	1	57
17	3	Q1c3	987	Q1	F	0	58
17	1	M2a1	886	M2	T	1	59
17	3	M1a3	862	M1	T	0	60
17	2	A2b2	1768	A2	U	1	61
17	3	A1c3	827	A1	F	0	62
17	3	Q2b3	1261	Q2	U	1	63
17	3	A2a3	954	A2	T	1	64
17	1	M1b1	864	M1	U	1	65
17	2	M2c2	874	M2	F	0	66
17	3	V1a3	979	V1	T	1	67
17	2	Q2c2	3171	Q2	F	0	68
17	1	Q1b1	1188	Q1	U	1	69
17	1	Q1c1	850	Q1	F	0	70
17	2	A1b2	931	A1	U	1	71
17	1	A1a1	598	A1	T	1	72
18	1	V1c1	171125	V1	F	1	1
18	3	A2b3	2790	A2	U	1	2
18	1	A2a1	5478	A2	T	1	3
18	2	V1c2	2525	V1	F	1	4
18	2	Q1a2	2117	Q1	T	1	5
18	1	M1c1	231	M1	F	1	6
18	3	M2c3	143	M2	F	1	7
18	3	Q1a3	129	Q1	T	1	8
18	1	A1b1	73	A1	U	0	9
18	3	Q2c3	107	Q2	F	1	10
18	1	V1a1	169	V1	T	1	11
18	1	C1b1	122	C1	U	1	12
18	2	A1c2	4	A1	F	0	13
18	2	M1a2	817	M1	T	0	14
18	2	M1b2	146	M1	U	1	15
18	L2	C1aL2	165	C1	T	1	16
18	3	V1b3	259	V1	U	0	17
18	2	A1a2	1200	A1	T	1	18
18	1	M2b1	169	M2	U	1	19
18	1	C1c1	153	C1	F	1	20
18	3	A2a3	170	A2	T	1	21
18	2	Q1b2	152	Q1	U	1	22
18	3	C1b3	232	C1	U	1	23
18	1	Q1b1	163	Q1	U	1	24
18	1	Q2c1	162	Q2	F	1	25
18	3	A1b3	184	A1	U	1	26
18	3	M1a3	138	M1	T	1	27
18	L1	C1aL1	233	C1	T	1	28
18	3	C1c3	154	C1	F	1	29
18	1	Q1a1	97	Q1	T	1	30
18	1	M1b1	84	M1	U	1	31
18	1	M2a1	153	M2	T	1	32
18	3	V1a3	185	V1	T	1	33
18	1	Q2a1	148	Q2	T	1	34
18	R1	C1aR1	101	C1	T	1	35
18	1	A1a1	199	A1	T	0	36
18	2	C1c2	200	C1	F	0	37
18	2	V1b2	16	V1	U	0	38
18	3	M2a3	200	M2	T	1	39
18	2	A2b2	200	A2	U	1	40
18	2	A2c2	23	A2	F	1	41
18	3	A1a3	29	A1	T	1	42
18	3	Q1b3	4	Q1	U	1	43
18	1	Q2b1	20	Q2	U	1	44
18	3	M1c3	217	M1	F	1	45
18	1	V1b1	21	V1	U	1	46
18	2	Q1c2	25	Q1	F	1	47
18	2	V1a2	3	V1	T	1	48
18	1	A2c1	4	A2	F	1	49
18	3	A2c3	90	A2	F	1	50
18	2	Q2c2	242	Q2	F	1	51
18	1	V1c1	123	V1	F	1	52
18	1	A1c1	4122	A1	F	1	53
18	2	A2a2	2972	A2	T	1	54
18	1	A2b1	914	A2	U	0	55
18	3	A1c3	1029	A1	F	0	56
18	1	M2c1	3044	M2	F	1	57
18	2	M1c2	2316	M1	F	1	58
18	3	Q1c3	2078	Q1	F	1	59
18	2	M2a2	164	M2	T	1	60
18	2	A1b2	200	A1	U	1	61
18	3	M2b3	148	M2	U	1	62
18	2	M2c2	184	M2	F	1	63
18	3	Q2b3	3	Q2	U	0	64
18	2	C1b2	418	C1	U	1	65
18	2	Q2a2	3304	Q2	T	1	66
18	3	M1b3	2032	M1	U	1	67
18	2	Q2b2	1961	Q2	U	1	68
18	3	Q2a3	2068	Q2	T	1	69
18	1	Q1c1	1563	Q1	F	0	70
18	1	M1a1	16664	M1	T	0	71
18	2	M2b2	3516	M2	U	1	72
19	1	V1c1	4678	V1	F	0	1
19	3	M1b3	1393	M1	U	1	2
19	3	C1c3	1976	C1	F	0	3
19	2	V1b2	1511	V1	U	1	4
19	2	A1a2	1320	A1	T	1	5
19	1	Q2c1	1616	Q2	F	0	6
19	1	M2a1	1926	M2	T	1	7
19	1	Q1a1	2495	Q1	T	1	8
19	3	A1a3	1095	A1	T	1	9
19	3	M2b3	2345	M2	U	0	10
19	3	Q1b3	1641	Q1	U	0	11
19	1	M1c1	2352	M1	F	0	12
19	2	Q1c2	1244	Q1	F	0	13
19	2	C1b2	1754	C1	U	0	14
19	3	C1b3	1287	C1	U	0	15
19	3	A2a3	1562	A2	T	1	16
19	2	M2a2	1446	M2	T	1	17
19	2	M2c2	1506	M2	F	0	18
19	3	Q2b3	1168	Q2	U	0	19
19	1	V1b1	1392	V1	U	1	20
19	2	Q2c2	1353	Q2	F	0	21
19	1	M1a1	1820	M1	T	1	22
19	1	A2b1	2613	A2	U	1	23
19	2	A2c2	1415	A2	F	0	24
19	2	Q2a2	1428	Q2	T	1	25
19	3	M1a3	1091	M1	T	1	26
19	1	A2a1	1442	A2	T	1	27
19	2	A1c2	2084	A1	F	0	28
19	2	V1c2	1351	V1	F	0	29
19	3	Q2a3	2234	Q2	T	1	30
19	1	A1b1	4576	A1	U	0	31
19	2	A2b2	1858	A2	U	1	32
19	3	V1a3	1258	V1	T	1	33
19	1	A2c1	1189	A2	F	0	34
19	3	A2b3	1374	A2	U	1	35
19	3	M1c3	1139	M1	F	0	36
19	1	Q1b1	1225	Q1	U	0	37
19	3	A1b3	1821	A1	U	0	38
19	1	Q1c1	1330	Q1	F	0	39
19	2	Q2b2	3477	Q2	U	0	40
19	3	M2a3	1145	M2	T	1	41
19	2	A2a2	1408	A2	T	1	42
19	3	V1b3	1340	V1	U	1	43
19	1	C1c1	1636	C1	F	0	44
19	3	M2c3	996	M2	F	0	45
19	1	M2b1	1232	M2	U	0	46
19	2	M1b2	1021	M1	U	1	47
19	2	V1a2	1124	V1	T	1	48
19	2	Q1b2	1269	Q1	U	0	49
19	1	Q2b1	1686	Q2	U	0	50
19	2	Q1a2	1230	Q1	T	1	51
19	2	C1c2	1166	C1	F	0	52
19	3	Q1a3	1044	Q1	T	1	53
19	L1	C1aL1	1217	C1	T	1	54
19	1	C1b1	955	C1	U	0	55
19	1	M2c1	891	M2	F	0	56
19	1	V1a1	967	V1	T	1	57
19	L2	C1aL2	1224	C1	T	1	58
19	1	A1c1	983	A1	F	0	59
19	3	Q1c3	1017	Q1	F	0	60
19	1	Q2a1	913	Q2	T	1	61
19	1	V1c1	1324	V1	F	0	62
19	3	A1c3	998	A1	F	0	63
19	2	M1a2	1927	M1	T	1	64
19	2	M2b2	1172	M2	U	0	65
19	2	A1b2	1093	A1	U	0	66
19	1	M1b1	1029	M1	U	1	67
19	2	M1c2	1137	M1	F	0	68
19	1	A1a1	1121	A1	T	1	69
19	3	A2c3	1179	A2	F	0	70
19	R1	C1aR1	1894	C1	T	1	71
19	3	Q2c3	1329	Q2	F	0	72
20	1	V1c1	2959	V1	F	0	1
20	2	C1c2	2910	C1	F	0	2
20	1	C1c1	1098	C1	F	0	3
20	3	Q2c3	1897	Q2	F	0	4
20	1	A1b1	1337	A1	U	1	5
20	3	A1a3	1504	A1	T	1	6
20	3	A1c3	994	A1	F	0	7
20	L1	C1aL1	901	C1	T	1	8
20	1	M2a1	3033	M2	T	1	9
20	2	V1a2	1852	V1	T	1	10
20	L2	C1aL2	863	C1	T	1	11
20	2	C1b2	965	C1	U	1	12
20	2	Q1b2	771	Q1	U	1	13
20	2	Q2a2	679	Q2	T	1	14
20	3	M2a3	1028	M2	T	1	15
20	3	M2c3	895	M2	F	1	16
20	2	A2c2	1388	A2	F	0	17
20	1	A1c1	919	A1	F	0	18
20	2	Q2b2	749	Q2	U	1	19
20	3	Q2b3	708	Q2	U	1	20
20	2	Q2c2	947	Q2	F	0	21
20	3	M1c3	1499	M1	F	1	22
20	2	V1c2	729	V1	F	0	23
20	3	M1a3	853	M1	T	0	24
20	1	V1a1	603	V1	T	1	25
20	3	Q1c3	703	Q1	F	0	26
20	1	Q1a1	1340	Q1	T	0	27
20	1	Q2a1	755	Q2	T	1	28
20	1	Q1c1	644	Q1	F	0	29
20	2	V1b2	2032	V1	U	0	30
20	2	M1b2	784	M1	U	1	31
20	3	A2a3	902	A2	T	1	32
20	1	M2b1	894	M2	U	1	33
20	3	A2b3	868	A2	U	0	34
20	2	M2a2	1025	M2	T	1	35
20	1	Q2c1	1317	Q2	F	0	36
20	2	Q1a2	995	Q1	T	0	37
20	3	Q1b3	1277	Q1	U	1	38
20	2	A1b2	1348	A1	U	0	39
20	3	M2b3	658	M2	U	1	40
20	1	V1b1	978	V1	U	0	41
20	3	C1c3	751	C1	F	0	42
20	1	M1c1	717	M1	F	1	43
20	1	A1a1	833	A1	T	1	44
20	2	M2b2	538	M2	U	1	45
20	R1	C1aR1	1077	C1	T	1	46
20	1	V1c1	704	V1	F	0	47
20	1	A2c1	970	A2	F	0	48
20	3	C1b3	605	C1	U	1	49
20	3	A1b3	761	A1	U	0	50
20	1	M1a1	760	M1	T	1	51
20	2	M1c2	1390	M1	F	0	52
20	1	M1b1	594	M1	U	1	53
20	1	A2a1	937	A2	T	1	54
20	2	A2a2	731	A2	T	1	55
20	3	Q1a3	637	Q1	T	1	56
20	1	C1b1	530	C1	U	1	57
20	1	Q2b1	1348	Q2	U	0	58
20	2	A1a2	795	A1	T	1	59
20	2	M2c2	906	M2	F	0	60
20	2	A1c2	793	A1	F	0	61
20	3	Q2a3	867	Q2	T	1	62
20	1	Q1b1	775	Q1	U	0	63
20	1	A2b1	908	A2	U	1	64
20	1	M2c1	983	M2	F	0	65
20	2	M1a2	734	M1	T	1	66
20	3	M1b3	580	M1	U	1	67
20	3	V1a3	697	V1	T	1	68
20	3	A2c3	796	A2	F	0	69
20	2	Q1c2	718	Q1	F	0	70
20	3	V1b3	813	V1	U	0	71
20	2	A2b2	833	A2	U	1	72
21	1	V1c1	8430	V1	F	0	1
21	2	V1c2	1664	V1	F	0	2
21	1	M1b1	1818	M1	U	1	3
21	1	C1c1	970	C1	F	0	4
21	3	V1b3	973	V1	U	1	5
21	1	V1a1	634	V1	T	1	6
21	3	Q1a3	1014	Q1	T	1	7
21	3	M1b3	731	M1	U	1	8
21	1	A1a1	782	A1	T	1	9
21	2	Q1a2	779	Q1	T	1	10
21	2	Q1b2	1523	Q1	U	1	11
21	1	Q2b1	772	Q2	U	1	12
21	2	M1c2	1940	M1	F	0	13
21	3	A1c3	879	A1	F	0	14
21	2	Q2a2	917	Q2	T	1	15
21	3	Q1c3	976	Q1	F	0	16
21	1	Q2a1	1309	Q2	T	0	17
21	1	A2c1	1144	A2	F	0	18
21	3	A1a3	662	A1	T	1	19
21	1	Q2c1	794	Q2	F	0	20
21	2	A1c2	734	A1	F	0	21
21	2	A1b2	1079	A1	U	1	22
21	3	A2a3	1080	A2	T	1	23
21	L2	C1aL2	1410	C1	T	1	24
21	2	M2b2	1276	M2	U	1	25
21	1	M2c1	916	M2	F	0	26
21	1	M2a1	1414	M2	T	1	27
21	3	A2c3	893	A2	F	0	28
21	1	Q1c1	924	Q1	F	0	29
21	1	Q1a1	1158	Q1	T	1	30
21	1	A2b1	2700	A2	U	1	31
21	3	M1a3	679	M1	T	0	32
21	2	A2c2	751	A2	F	0	33
21	3	M2a3	1103	M2	T	1	34
21	1	A1b1	767	A1	U	1	35
21	2	A2a2	848	A2	T	1	36
21	3	Q2a3	943	Q2	T	1	37
21	3	M2b3	1032	M2	U	1	38
21	2	M1b2	648	M1	U	1	39
21	1	M1c1	2764	M1	F	0	40
21	1	V1c1	759	V1	F	0	41
21	2	V1a2	609	V1	T	1	42
21	3	A2b3	1274	A2	U	1	43
21	3	Q2b3	533	Q2	U	1	44
21	2	C1b2	803	C1	U	1	45
21	3	V1a3	470	V1	T	1	46
21	3	M2c3	546	M2	F	0	47
21	2	A1a2	538	A1	T	1	48
21	1	A1c1	669	A1	F	0	49
21	2	Q1c2	931	Q1	F	0	50
21	2	Q2c2	1242	Q2	F	0	51
21	1	C1b1	864	C1	U	1	52
21	3	M1c3	817	M1	F	0	53
21	3	Q1b3	1289	Q1	U	1	54
21	2	V1b2	1785	V1	U	0	55
21	R1	C1aR1	1228	C1	T	1	56
21	3	C1b3	769	C1	U	1	57
21	1	M1a1	932	M1	T	0	58
21	2	M2a2	657	M2	T	1	59
21	2	A2b2	774	A2	U	0	60
21	3	A1b3	900	A1	U	1	61
21	2	M1a2	764	M1	T	0	62
21	3	Q2c3	691	Q2	F	0	63
21	2	M2c2	747	M2	F	0	64
21	L1	C1aL1	1314	C1	T	1	65
21	1	A2a1	1186	A2	T	1	66
21	2	Q2b2	504	Q2	U	1	67
21	3	C1c3	749	C1	F	0	68
21	1	M2b1	838	M2	U	1	69
21	2	C1c2	1226	C1	F	0	70
21	1	Q1b1	1053	Q1	U	0	71
21	1	V1b1	1264	V1	U	0	72
22	1	V1c1	3726	V1	F	0	1
22	1	V1a1	1572	V1	T	1	2
22	3	A2b3	2492	A2	U	1	3
22	3	M2a3	2671	M2	T	1	4
22	2	V1b2	1966	V1	U	0	5
22	1	A2c1	1046	A2	F	0	6
22	1	Q2c1	999	Q2	F	0	7
22	2	V1a2	1365	V1	T	1	8
22	2	Q2b2	925	Q2	U	1	9
22	2	A2b2	807	A2	U	1	10
22	2	A1b2	2790	A1	U	1	11
22	3	Q2c3	846	Q2	F	0	12
22	3	V1a3	630	V1	T	1	13
22	R1	C1aR1	1630	C1	T	1	14
22	3	A2c3	718	A2	F	0	15
22	3	Q2a3	694	Q2	T	1	16
22	1	A1c1	917	A1	F	0	17
22	3	M1c3	1301	M1	F	0	18
22	3	C1b3	4007	C1	U	0	19
22	3	A1a3	1430	A1	T	1	20
22	1	C1b1	1062	C1	U	0	21
22	1	A1a1	702	A1	T	1	22
22	3	V1b3	636	V1	U	0	23
22	3	A1c3	836	A1	F	0	24
22	2	Q2c2	478	Q2	F	0	25
22	3	Q1c3	502	Q1	F	0	26
22	1	A2b1	862	A2	U	1	27
22	2	C1c2	748	C1	F	0	28
22	2	A1c2	629	A1	F	0	29
22	1	A1b1	710	A1	U	1	30
22	1	V1b1	1022	V1	U	0	31
22	2	A1a2	430	A1	T	1	32
22	2	Q2a2	774	Q2	T	1	33
22	1	Q1a1	526	Q1	T	1	34
22	3	Q2b3	613	Q2	U	1	35
22	3	M2b3	1077	M2	U	1	36
22	1	V1c1	602	V1	F	0	37
22	L2	C1aL2	677	C1	T	1	38
22	2	M1c2	550	M1	F	0	39
22	2	M2b2	534	M2	U	1	40
22	2	V1c2	732	V1	F	0	41
22	2	A2c2	755	A2	F	0	42
22	2	A2a2	542	A2	T	1	43
22	1	Q1b1	1333	Q1	U	1	44
22	2	Q1b2	1166	Q1	U	1	45
22	2	C1b2	988	C1	U	0	46
22	1	M2a1	1198	M2	T	1	47
22	2	Q1c2	853	Q1	F	0	48
22	1	M1c1	590	M1	F	0	49
22	3	A2a3	645	A2	T	1	50
22	1	M2b1	613	M2	U	1	51
22	1	M1b1	861	M1	U	1	52
22	L1	C1aL1	550	C1	T	1	53
22	3	M1b3	566	M1	U	1	54
22	1	Q1c1	446	Q1	F	0	55
22	3	M2c3	703	M2	F	0	56
22	2	M2c2	487	M2	F	0	57
22	2	Q1a2	494	Q1	T	1	58
22	1	Q2b1	501	Q2	U	1	59
22	1	M2c1	534	M2	F	0	60
22	3	Q1b3	718	Q1	U	1	61
22	2	M2a2	510	M2	T	1	62
22	1	Q2a1	589	Q2	T	1	63
22	3	Q1a3	574	Q1	T	1	64
22	3	C1c3	550	C1	F	0	65
22	2	M1a2	2238	M1	T	1	66
22	2	M1b2	606	M1	U	1	67
22	1	A2a1	964	A2	T	1	68
22	1	C1c1	445	C1	F	0	69
22	3	M1a3	598	M1	T	1	70
22	3	A1b3	1238	A1	U	1	71
22	1	M1a1	541	M1	T	1	72
23	1	V1c1	1235	V1	F	1	1
23	3	C1b3	2482	C1	U	1	2
23	1	A1b1	1475	A1	U	1	3
23	1	C1b1	900	C1	U	1	4
23	1	M1a1	1927	M1	T	0	5
23	2	A1c2	1219	A1	F	0	6
23	2	C1b2	931	C1	U	1	7
23	2	A2b2	1768	A2	U	0	8
23	2	M2a2	1476	M2	T	0	9
23	2	M2b2	1901	M2	U	1	10
23	2	M1c2	1460	M1	F	0	11
23	L2	C1aL2	1094	C1	T	0	12
23	2	A2c2	1766	A2	F	0	13
23	1	A2a1	1189	A2	T	1	14
23	2	V1c2	2102	V1	F	1	15
23	2	V1a2	1398	V1	T	1	16
23	1	A2b1	1814	A2	U	1	17
23	2	M1b2	901	M1	U	1	18
23	3	Q1c3	1347	Q1	F	0	19
23	3	M2c3	2112	M2	F	0	20
23	1	A1c1	807	A1	F	0	21
23	3	A1b3	871	A1	U	1	22
23	3	A2b3	1077	A2	U	0	23
23	1	Q1a1	1572	Q1	T	1	24
23	1	M2a1	1172	M2	T	1	25
23	2	Q1a2	904	Q1	T	1	26
23	3	M1c3	1077	M1	F	0	27
23	2	A2a2	1039	A2	T	1	28
23	3	V1a3	869	V1	T	1	29
23	R1	C1aR1	948	C1	T	0	30
23	3	C1c3	794	C1	F	0	31
23	3	M2b3	1110	M2	U	1	32
23	1	M2c1	932	M2	F	0	33
23	2	Q2c2	1108	Q2	F	0	34
23	3	A1c3	877	A1	F	0	35
23	3	V1b3	3019	V1	U	0	36
23	1	Q1b1	3781	Q1	U	1	37
23	2	V1b2	1349	V1	U	0	38
23	1	A2c1	1207	A2	F	0	39
23	1	V1c1	2195	V1	F	0	40
23	2	C1c2	917	C1	F	0	41
23	2	A1b2	877	A1	U	1	42
23	2	Q1b2	949	Q1	U	1	43
23	1	Q1c1	983	Q1	F	0	44
23	L1	C1aL1	1971	C1	T	1	45
23	2	Q2b2	933	Q2	U	1	46
23	1	C1c1	772	C1	F	0	47
23	1	M1b1	870	M1	U	1	48
23	3	Q2a3	835	Q2	T	1	49
23	3	A1a3	1126	A1	T	1	50
23	2	A1a2	836	A1	T	1	51
23	2	M1a2	1012	M1	T	0	52
23	1	V1a1	886	V1	T	1	53
23	1	A1a1	757	A1	T	1	54
23	3	M1a3	693	M1	T	0	55
23	1	V1b1	1253	V1	U	1	56
23	3	A2c3	1380	A2	F	0	57
23	3	M1b3	884	M1	U	1	58
23	1	M1c1	1405	M1	F	0	59
23	3	Q1a3	1604	Q1	T	1	60
23	1	M2b1	953	M2	U	1	61
23	2	M2c2	787	M2	F	0	62
23	1	Q2a1	822	Q2	T	1	63
23	1	Q2b1	902	Q2	U	1	64
23	3	M2a3	1207	M2	T	1	65
23	1	Q2c1	883	Q2	F	0	66
23	2	Q2a2	1012	Q2	T	1	67
23	3	A2a3	1046	A2	T	0	68
23	2	Q1c2	775	Q1	F	0	69
23	3	Q2c3	1319	Q2	F	0	70
23	3	Q1b3	833	Q1	U	1	71
23	3	Q2b3	726	Q2	U	1	72
24	1	V1c1	6613	V1	F	0	1
24	2	Q1b2	3797	Q1	U	1	2
24	3	M2a3	2814	M2	T	0	3
24	1	A1b1	8015	A1	U	1	4
24	2	V1b2	2509	V1	U	1	5
24	1	M1a1	2424	M1	T	0	6
24	2	M1a2	7848	M1	T	0	7
24	3	A1c3	2283	A1	F	0	8
24	3	M2c3	1964	M2	F	0	9
24	2	M2c2	3051	M2	F	1	10
24	3	A1a3	3068	A1	T	1	11
24	3	A2a3	1997	A2	T	1	12
24	L1	C1aL1	4126	C1	T	1	13
24	2	A2b2	1807	A2	U	0	14
24	1	C1b1	2066	C1	U	0	15
24	1	Q1b1	1507	Q1	U	1	16
24	3	Q1a3	1680	Q1	T	1	17
24	1	A2c1	1803	A2	F	0	18
24	L2	C1aL2	2823	C1	T	1	19
24	2	Q1a2	2864	Q1	T	1	20
24	2	A1c2	1484	A1	F	0	21
24	3	C1c3	1364	C1	F	0	22
24	1	V1c1	1800	V1	F	0	23
24	2	M1c2	2322	M1	F	0	24
24	1	Q2b1	5315	Q2	U	0	25
24	3	Q2a3	2302	Q2	T	1	26
24	1	Q1c1	1429	Q1	F	0	27
24	1	Q2c1	1807	Q2	F	0	28
24	1	A2b1	8513	A2	U	0	29
24	2	V1c2	1383	V1	F	0	30
24	1	Q1a1	1678	Q1	T	1	31
24	2	M1b2	4114	M1	U	1	32
24	1	M1b1	1553	M1	U	1	33
24	2	Q2c2	1630	Q2	F	0	34
24	1	Q2a1	1606	Q2	T	1	35
24	2	Q1c2	1223	Q1	F	0	36
24	1	V1a1	1584	V1	T	1	37
24	3	A2c3	1801	A2	F	0	38
24	3	A1b3	2132	A1	U	1	39
24	3	M1b3	1374	M1	U	1	40
24	2	C1c2	1563	C1	F	0	41
24	3	A2b3	1590	A2	U	0	42
24	2	M2b2	3267	M2	U	1	43
24	2	Q2b2	2740	Q2	U	1	44
24	2	V1a2	2150	V1	T	1	45
24	1	M2b1	1987	M2	U	1	46
24	3	Q1c3	1216	Q1	F	0	47
24	1	A2a1	1598	A2	T	1	48
24	1	V1b1	9965	V1	U	0	49
24	3	V1b3	1914	V1	U	0	50
24	3	C1b3	1612	C1	U	0	51
24	3	M2b3	2085	M2	U	1	52
24	1	M2a1	2430	M2	T	1	53
24	2	A2c2	1355	A2	F	0	54
24	1	M1c1	2168	M1	F	0	55
24	3	V1a3	2192	V1	T	1	56
24	2	C1b2	1432	C1	U	0	57
24	3	Q2c3	1666	Q2	F	0	58
24	1	C1c1	1539	C1	F	0	59
24	1	M2c1	2061	M2	F	0	60
24	3	Q2b3	2929	Q2	U	0	61
24	2	A1a2	2569	A1	T	1	62
24	2	Q2a2	1914	Q2	T	1	63
24	3	Q1b3	1345	Q1	U	0	64
24	2	A2a2	1506	A2	T	1	65
24	1	A1a1	2338	A1	T	1	66
24	2	A1b2	3540	A1	U	1	67
24	2	M2a2	3215	M2	T	1	68
24	1	A1c1	1554	A1	F	0	69
24	R1	C1aR1	1235	C1	T	1	70
24	3	M1a3	1974	M1	T	0	71
24	3	M1c3	1739	M1	F	0	72
25	1	V1c1	1595	V1	F	0	1
25	3	A1a3	888	A1	T	1	2
25	1	V1b1	1392	V1	U	0	3
25	2	M2c2	1034	M2	F	0	4
25	1	Q1b1	1111	Q1	U	0	5
25	3	Q1c3	702	Q1	F	0	6
25	1	A1a1	478	A1	T	1	7
25	1	C1b1	2628	C1	U	0	8
25	2	A2c2	1096	A2	F	1	9
25	2	V1c2	577	V1	F	0	10
25	1	Q1a1	669	Q1	T	1	11
25	3	A2a3	933	A2	T	1	12
25	2	A2a2	602	A2	T	1	13
25	2	A1a2	345	A1	T	1	14
25	1	C1c1	990	C1	F	0	15
25	2	Q2c2	864	Q2	F	0	16
25	2	C1c2	1005	C1	F	0	17
25	2	M1a2	2258	M1	T	0	18
25	2	Q1c2	596	Q1	F	0	19
25	3	A2b3	620	A2	U	0	20
25	1	M2c1	1216	M2	F	0	21
25	L1	C1aL1	739	C1	T	1	22
25	3	M2b3	662	M2	U	1	23
25	3	Q2b3	753	Q2	U	1	24
25	1	V1c1	506	V1	F	0	25
25	1	M1c1	2075	M1	F	0	26
25	3	M1b3	1310	M1	U	1	27
25	1	M1a1	590	M1	T	0	28
25	2	M1c2	755	M1	F	0	29
25	1	A2a1	585	A2	T	1	30
25	3	C1c3	678	C1	F	0	31
25	3	V1a3	634	V1	T	1	32
25	R1	C1aR1	605	C1	T	1	33
25	3	A1b3	1720	A1	U	0	34
25	1	M2b1	880	M2	U	0	35
25	3	M2a3	602	M2	T	1	36
25	2	M1b2	570	M1	U	1	37
25	1	Q1c1	521	Q1	F	0	38
25	2	V1b2	566	V1	U	1	39
25	1	A1b1	1086	A1	U	0	40
25	1	A2c1	704	A2	F	0	41
25	1	M2a1	638	M2	T	1	42
25	1	A2b1	621	A2	U	0	43
25	1	Q2c1	584	Q2	F	1	44
25	3	Q2c3	737	Q2	F	0	45
25	2	A1c2	720	A1	F	0	46
25	3	M1c3	567	M1	F	0	47
25	2	Q1a2	494	Q1	T	1	48
25	1	M1b1	527	M1	U	1	49
25	2	M2a2	583	M2	T	1	50
25	2	Q2a2	562	Q2	T	1	51
25	3	C1b3	537	C1	U	0	52
25	3	A2c3	597	A2	F	0	53
25	3	M1a3	598	M1	T	0	54
25	2	M2b2	728	M2	U	0	55
25	3	Q1b3	893	Q1	U	0	56
25	L2	C1aL2	484	C1	T	1	57
25	2	V1a2	450	V1	T	1	58
25	3	Q1a3	642	Q1	T	1	59
25	2	A1b2	584	A1	U	0	60
25	3	Q2a3	580	Q2	T	1	61
25	2	Q1b2	643	Q1	U	0	62
25	2	A2b2	645	A2	U	0	63
25	2	C1b2	585	C1	U	0	64
25	3	V1b3	649	V1	U	0	65
25	3	M2c3	594	M2	F	0	66
25	1	Q2a1	623	Q2	T	1	67
25	2	Q2b2	559	Q2	U	1	68
25	3	A1c3	513	A1	F	0	69
25	1	V1a1	542	V1	T	1	70
25	1	A1c1	546	A1	F	0	71
25	1	Q2b1	652	Q2	U	1	72
26	1	V1c1	2299	V1	F	0	1
26	2	Q1b2	2558	Q1	U	0	2
26	1	C1c1	2254	C1	F	0	3
26	3	Q1c3	1692	Q1	F	0	4
26	1	A2a1	1374	A2	T	1	5
26	2	Q2b2	2126	Q2	U	0	6
26	2	A1a2	1404	A1	T	1	7
26	2	A2a2	1358	A2	T	1	8
26	2	Q2c2	2127	Q2	F	0	9
26	2	Q2a2	1426	Q2	T	1	10
26	2	C1c2	1263	C1	F	0	11
26	1	Q1b1	1087	Q1	U	0	12
26	2	Q1c2	926	Q1	F	0	13
26	3	A1a3	1019	A1	T	1	14
26	1	M2c1	1662	M2	F	0	15
26	2	A2c2	1230	A2	F	0	16
26	1	Q2b1	906	Q2	U	0	17
26	1	V1b1	1886	V1	U	1	18
26	3	Q1a3	1134	Q1	T	1	19
26	3	M2c3	1104	M2	F	0	20
26	1	A1b1	1054	A1	U	0	21
26	2	A1b2	702	A1	U	0	22
26	2	M1b2	3086	M1	U	1	23
26	2	M2b2	1851	M2	U	0	24
26	1	Q1a1	1118	Q1	T	1	25
26	1	V1c1	1102	V1	F	0	26
26	2	M2a2	1470	M2	T	1	27
26	2	V1c2	923	V1	F	0	28
26	1	M1a1	1056	M1	T	0	29
26	3	Q2b3	991	Q2	U	0	30
26	1	M1b1	1150	M1	U	1	31
26	2	V1a2	1870	V1	T	1	32
26	2	M1a2	766	M1	T	0	33
26	L2	C1aL2	3923	C1	T	1	34
26	2	M1c2	1229	M1	F	0	35
26	1	M1c1	1022	M1	F	0	36
26	2	A2b2	878	A2	U	0	37
26	1	M2b1	942	M2	U	0	38
26	3	Q2a3	1727	Q2	T	1	39
26	3	Q2c3	1022	Q2	F	0	40
26	3	A1c3	878	A1	F	0	41
26	1	Q2a1	1262	Q2	T	1	42
26	3	M1c3	798	M1	F	0	43
26	3	M2b3	975	M2	U	0	44
26	3	C1c3	831	C1	F	0	45
26	3	M1b3	1374	M1	U	1	46
26	3	C1b3	1135	C1	U	0	47
26	2	V1b2	1119	V1	U	1	48
26	1	A1c1	671	A1	F	0	49
26	2	M2c2	1039	M2	F	0	50
26	3	A2c3	1054	A2	F	0	51
26	1	A2c1	2028	A2	F	0	52
26	2	C1b2	1294	C1	U	0	53
26	3	A2b3	959	A2	U	0	54
26	L1	C1aL1	1967	C1	T	1	55
26	3	M1a3	799	M1	T	0	56
26	1	A2b1	814	A2	U	0	57
26	1	M2a1	1262	M2	T	1	58
26	1	Q2c1	1151	Q2	F	0	59
26	1	Q1c1	972	Q1	F	0	60
26	1	V1a1	1229	V1	T	1	61
26	3	M2a3	1289	M2	T	1	62
26	3	V1b3	1534	V1	U	0	63
26	3	Q1b3	731	Q1	U	0	64
26	R1	C1aR1	1615	C1	T	1	65
26	2	Q1a2	1070	Q1	T	1	66
26	3	A2a3	1422	A2	T	1	67
26	2	A1c2	651	A1	F	0	68
26	1	C1b1	1454	C1	U	0	69
26	3	V1a3	1054	V1	T	1	70
26	1	A1a1	895	A1	T	1	71
26	3	A1b3	1104	A1	U	0	72
27	1	V1c1	684	V1	F	0	1
27	3	M1b3	990	M1	U	1	2
27	3	M1a3	3743	M1	T	1	3
27	3	Q2b3	2685	Q2	U	1	4
27	2	V1b2	974	V1	U	0	5
27	3	C1b3	1328	C1	U	0	6
27	1	A2a1	766	A2	T	1	7
27	3	A1b3	845	A1	U	1	8
27	2	Q2b2	1086	Q2	U	1	9
27	3	Q1b3	893	Q1	U	0	10
27	2	C1b2	861	C1	U	0	11
27	1	M2c1	893	M2	F	0	12
27	2	A2a2	590	A2	T	1	13
27	2	V1a2	526	V1	T	1	14
27	2	Q1b2	1150	Q1	U	0	15
27	1	C1c1	1324	C1	F	0	16
27	1	M2a1	831	M2	T	1	17
27	3	Q1c3	767	Q1	F	0	18
27	3	M2b3	5616	M2	U	0	19
27	3	A2b3	7245	A2	U	0	20
27	3	M2c3	896	M2	F	0	21
27	2	M1c2	958	M1	F	0	22
27	3	M1c3	750	M1	F	0	23
27	2	Q1a2	685	Q1	T	1	24
27	L1	C1aL1	558	C1	T	1	25
27	1	Q1a1	1422	Q1	T	1	26
27	1	A2b1	942	A2	U	0	27
27	1	M2b1	830	M2	U	0	28
27	1	Q1c1	623	Q1	F	0	29
27	1	M1a1	832	M1	T	1	30
27	2	M1a2	575	M1	T	1	31
27	3	Q1a3	591	Q1	T	1	32
27	2	A1c2	639	A1	F	0	33
27	3	C1c3	702	C1	F	0	34
27	3	M2a3	476	M2	T	1	35
27	1	A1c1	590	A1	F	0	36
27	2	C1c2	478	C1	F	0	37
27	3	Q2a3	813	Q2	T	1	38
27	2	Q2c2	798	Q2	F	0	39
27	1	A2c1	686	A2	F	0	40
27	2	Q2a2	638	Q2	T	1	41
27	1	M1c1	589	M1	F	0	42
27	1	Q2a1	670	Q2	T	1	43
27	3	V1a3	446	V1	T	1	44
27	2	A1b2	654	A1	U	1	45
27	3	A2a3	783	A2	T	1	46
27	2	M2c2	526	M2	F	0	47
27	1	Q2c1	718	Q2	F	0	48
27	2	A2c2	590	A2	F	0	49
27	3	V1b3	639	V1	U	0	50
27	1	Q2b1	591	Q2	U	1	51
27	2	V1c2	573	V1	F	0	52
27	3	A2c3	926	A2	F	0	53
27	2	Q1c2	495	Q1	F	0	54
27	R1	C1aR1	735	C1	T	1	55
27	1	M1b1	510	M1	U	1	56
27	L2	C1aL2	652	C1	T	1	57
27	1	Q1b1	541	Q1	U	0	58
27	2	A1a2	462	A1	T	1	59
27	1	A1b1	638	A1	U	1	60
27	1	V1b1	590	V1	U	0	61
27	2	M1b2	413	M1	U	1	62
27	3	A1c3	574	A1	F	0	63
27	2	M2a2	414	M2	T	1	64
27	1	V1c1	574	V1	F	0	65
27	1	A1a1	431	A1	T	1	66
27	3	A1a3	461	A1	T	1	67
27	3	Q2c3	990	Q2	F	0	68
27	1	V1a1	559	V1	T	1	69
27	2	A2b2	511	A2	U	0	70
27	2	M2b2	1023	M2	U	0	71
27	1	C1b1	557	C1	U	0	72
28	1	V1c1	3714	V1	F	1	1
28	1	Q2a1	1130	Q2	T	1	2
28	2	M1b2	1071	M1	U	1	3
28	2	M1a2	818	M1	T	0	4
28	2	V1c2	3900	V1	F	1	5
28	2	V1a2	2914	V1	T	1	6
28	2	Q2a2	1066	Q2	T	1	7
28	1	M2b1	3093	M2	U	1	8
28	2	Q2c2	1060	Q2	F	0	9
28	3	A2c3	1344	A2	F	0	10
28	2	M2b2	1196	M2	U	1	11
28	2	A2b2	4000	A2	U	1	12
28	1	M1a1	830	M1	T	0	13
28	2	M1c2	6298	M1	F	0	14
28	3	Q1b3	1355	Q1	U	1	15
28	3	Q1c3	1052	Q1	F	0	16
28	2	Q1c2	955	Q1	F	0	17
28	3	C1b3	1331	C1	U	1	18
28	1	A1c1	1324	A1	F	0	19
28	2	V1b2	1549	V1	U	1	20
28	1	V1c1	1197	V1	F	0	21
28	1	M1b1	772	M1	U	1	22
28	1	C1c1	1094	C1	F	0	23
28	1	M1c1	1310	M1	F	0	24
28	1	A2b1	1347	A2	U	1	25
28	2	M2c2	1563	M2	F	0	26
28	L1	C1aL1	2445	C1	T	1	27
28	3	A2b3	1196	A2	U	1	28
28	2	C1b2	852	C1	U	1	29
28	2	C1c2	1053	C1	F	0	30
28	2	A1a2	778	A1	T	1	31
28	3	M1b3	830	M1	U	1	32
28	1	Q1a1	1062	Q1	T	1	33
28	3	V1a3	845	V1	T	1	34
28	1	Q1b1	1020	Q1	U	1	35
28	2	M2a2	1214	M2	T	1	36
28	3	M2c3	645	M2	F	0	37
28	3	A1a3	730	A1	T	1	38
28	1	V1b1	780	V1	U	1	39
28	3	M2a3	870	M2	T	1	40
28	3	M1a3	9654	M1	T	0	41
28	2	Q1b2	606	Q1	U	1	42
28	3	M2b3	676	M2	U	1	43
28	1	Q2b1	674	Q2	U	1	44
28	R1	C1aR1	939	C1	T	1	45
28	1	C1b1	636	C1	U	1	46
28	2	A2a2	1064	A2	T	1	47
28	3	Q2c3	1203	Q2	F	0	48
28	1	A1a1	541	A1	T	1	49
28	1	A2c1	772	A2	F	0	50
28	1	V1a1	624	V1	T	1	51
28	3	Q1a3	787	Q1	T	1	52
28	1	M2a1	662	M2	T	1	53
28	3	V1b3	612	V1	U	1	54
28	2	A1b2	636	A1	U	1	55
28	1	A1b1	626	A1	U	1	56
28	3	A1b3	508	A1	U	1	57
28	1	M2c1	780	M2	F	0	58
28	3	A2a3	694	A2	T	1	59
28	2	A1c2	687	A1	F	0	60
28	2	Q1a2	650	Q1	T	1	61
28	L2	C1aL2	1173	C1	T	1	62
28	1	Q2c1	2054	Q2	F	0	63
28	3	Q2b3	627	Q2	U	1	64
28	3	M1c3	717	M1	F	0	65
28	3	A1c3	588	A1	F	0	66
28	2	Q2b2	583	Q2	U	1	67
28	1	A2a1	725	A2	T	1	68
28	1	Q1c1	733	Q1	F	0	69
28	3	C1c3	759	C1	F	0	70
28	2	A2c2	865	A2	F	0	71
28	3	Q2a3	916	Q2	T	1	72
29	1	V1c1	3555	V1	F	0	1
29	1	C1b1	1264	C1	U	1	2
29	2	V1c2	1496	V1	F	0	3
29	3	Q2c3	2416	Q2	F	0	4
29	2	M1a2	1461	M1	T	0	5
29	3	M1c3	1945	M1	F	0	6
29	3	Q2b3	899	Q2	U	1	7
29	2	Q1c2	1043	Q1	F	0	8
29	1	Q1a1	1543	Q1	T	1	9
29	2	Q2b2	1044	Q2	U	1	10
29	2	A2c2	1236	A2	F	0	11
29	1	A1a1	1105	A1	T	1	12
29	1	M1b1	1025	M1	U	1	13
29	3	A2c3	1503	A2	F	0	14
29	3	M1b3	835	M1	U	1	15
29	1	V1a1	1185	V1	T	1	16
29	2	Q1a2	1204	Q1	T	1	17
29	L2	C1aL2	2371	C1	T	1	18
29	2	A1c2	1083	A1	F	0	19
29	3	Q1b3	843	Q1	U	1	20
29	3	Q2a3	1389	Q2	T	1	21
29	1	V1c1	887	V1	F	0	22
29	1	M1a1	919	M1	T	0	23
29	3	Q1a3	928	Q1	T	1	24
29	2	A1b2	995	A1	U	1	25
29	1	Q2a1	1389	Q2	T	1	26
29	2	M1b2	844	M1	U	1	27
29	1	V1b1	2712	V1	U	1	28
29	1	A2a1	943	A2	T	1	29
29	1	A2c1	1897	A2	F	0	30
29	3	M2b3	1220	M2	U	1	31
29	1	M2a1	1181	M2	T	0	32
29	2	A2b2	995	A2	U	1	33
29	1	C1c1	1084	C1	F	0	34
29	R1	C1aR1	1839	C1	T	1	35
29	2	M1c2	1081	M1	F	0	36
29	1	Q2b1	693	Q2	U	1	37
29	2	Q1b2	969	Q1	U	1	38
29	1	M1c1	1070	M1	F	0	39
29	3	A1a3	642	A1	T	1	40
29	1	A2b1	1727	A2	U	1	41
29	3	A1c3	518	A1	F	0	42
29	3	Q1c3	1064	Q1	F	0	43
29	1	Q1c1	705	Q1	F	0	44
29	1	A1c1	823	A1	F	0	45
29	2	A2a2	1101	A2	T	1	46
29	1	M2c1	966	M2	F	0	47
29	2	C1c2	767	C1	F	0	48
29	2	V1a2	949	V1	T	1	49
29	2	A1a2	571	A1	T	1	50
29	2	Q2c2	1422	Q2	F	0	51
29	3	V1a3	850	V1	T	1	52
29	3	A2b3	1470	A2	U	1	53
29	2	M2c2	918	M2	F	0	54
29	3	A1b3	1028	A1	U	1	55
29	3	A2a3	833	A2	T	1	56
29	3	C1c3	618	C1	F	0	57
29	1	Q1b1	560	Q1	U	1	58
29	2	M2a2	1793	M2	T	1	59
29	3	V1b3	2783	V1	U	1	60
29	3	M2a3	1310	M2	T	1	61
29	2	V1b2	727	V1	U	1	62
29	3	M1a3	786	M1	T	0	63
29	1	M2b1	1087	M2	U	1	64
29	2	C1b2	806	C1	U	1	65
29	3	M2c3	719	M2	F	0	66
29	1	A1b1	638	A1	U	1	67
29	2	M2b2	1009	M2	U	1	68
29	3	C1b3	647	C1	U	1	69
29	1	Q2c1	1181	Q2	F	0	70
29	2	Q2a2	1086	Q2	T	1	71
29	L1	C1aL1	1208	C1	T	1	72
30	1	V1c1	2733	V1	F	1	1
30	3	M1b3	2422	M1	U	1	2
30	3	Q1c3	4844	Q1	F	0	3
30	2	A1a2	1698	A1	T	1	4
30	3	A1a3	2336	A1	T	1	5
30	3	C1c3	1392	C1	F	0	6
30	1	A1a1	2298	A1	T	1	7
30	2	M1b2	1978	M1	U	1	8
30	2	Q2c2	1370	Q2	F	0	9
30	2	M2b2	2550	M2	U	1	10
30	1	C1c1	1349	C1	F	0	11
30	3	M1c3	1914	M1	F	0	12
30	2	C1c2	1361	C1	F	0	13
30	3	Q1a3	1005	Q1	T	1	14
30	1	M2c1	1088	M2	F	0	15
30	1	Q1a1	1441	Q1	T	1	16
30	3	V1b3	2282	V1	U	1	17
30	1	Q1c1	1080	Q1	F	0	18
30	1	A1c1	935	A1	F	0	19
30	L2	C1aL2	927	C1	T	1	20
30	3	M1a3	1108	M1	T	0	21
30	3	V1a3	3129	V1	T	1	22
30	1	M1b1	917	M1	U	1	23
30	R1	C1aR1	1602	C1	T	1	24
30	3	M2b3	712	M2	U	1	25
30	2	A1c2	724	A1	F	0	26
30	2	M2a2	1227	M2	T	1	27
30	1	Q1b1	876	Q1	U	1	28
30	3	A2c3	1137	A2	F	0	29
30	2	A2b2	2720	A2	U	1	30
30	1	M1a1	808	M1	T	0	31
30	2	M2c2	813	M2	F	0	32
30	1	Q2a1	1008	Q2	T	1	33
30	2	C1b2	1670	C1	U	0	34
30	3	M2a3	853	M2	T	1	35
30	3	A1c3	763	A1	F	0	36
30	3	Q2c3	1964	Q2	F	0	37
30	2	A2c2	1303	A2	F	0	38
30	2	M1c2	916	M1	F	0	39
30	1	A2a1	765	A2	T	1	40
30	3	C1b3	1479	C1	U	0	41
30	2	Q1c2	834	Q1	F	0	42
30	2	Q2b2	1508	Q2	U	0	43
30	1	M2a1	1702	M2	T	1	44
30	1	A2c1	668	A2	F	0	45
30	3	M2c3	2006	M2	F	0	46
30	2	M1a2	844	M1	T	0	47
30	1	M2b1	1481	M2	U	1	48
30	3	Q2b3	871	Q2	U	1	49
30	2	Q1a2	646	Q1	T	0	50
30	3	Q2a3	1367	Q2	T	1	51
30	2	Q1b2	907	Q1	U	0	52
30	1	A1b1	1377	A1	U	1	53
30	1	Q2b1	867	Q2	U	1	54
30	1	M1c1	837	M1	F	0	55
30	2	A2a2	1606	A2	T	1	56
30	2	V1b2	5161	V1	U	0	57
30	2	A1b2	818	A1	U	1	58
30	1	C1b1	1260	C1	U	0	59
30	1	V1b1	1010	V1	U	0	60
30	2	V1c2	3574	V1	F	0	61
30	2	V1a2	871	V1	T	1	62
30	3	A2a3	1222	A2	T	1	63
30	1	V1c1	759	V1	F	0	64
30	3	Q1b3	838	Q1	U	1	65
30	3	A1b3	909	A1	U	1	66
30	3	A2b3	1105	A2	U	0	67
30	1	V1a1	975	V1	T	1	68
30	1	A2b1	981	A2	U	0	69
30	1	Q2c1	1415	Q2	F	0	70
30	2	Q2a2	1110	Q2	T	1	71
30	L1	C1aL1	1305	C1	T	1	72
31	1	V1c1	2535	V1	F	0	1
31	3	A2c3	1574	A2	F	0	2
31	2	Q1c2	1327	Q1	F	0	3
31	1	M1c1	2189	M1	F	0	4
31	3	Q1b3	644	Q1	U	1	5
31	2	V1b2	1057	V1	U	1	6
31	1	Q2c1	847	Q2	F	0	7
31	3	M2a3	2387	M2	T	1	8
31	2	M1b2	1093	M1	U	1	9
31	2	M2b2	1467	M2	U	1	10
31	2	Q1a2	1420	Q1	T	1	11
31	3	A1c3	1130	A1	F	0	12
31	1	C1c1	2131	C1	F	1	13
31	2	M2c2	763	M2	F	0	14
31	L2	C1aL2	1515	C1	T	1	15
31	3	M2b3	1016	M2	U	1	16
31	3	A1b3	3258	A1	U	1	17
31	2	A1b2	998	A1	U	1	18
31	1	V1a1	1106	V1	T	1	19
31	2	C1b2	3576	C1	U	1	20
31	1	M2b1	679	M2	U	1	21
31	1	A1a1	814	A1	T	1	22
31	L1	C1aL1	1837	C1	T	1	23
31	1	A1b1	602	A1	U	1	24
31	2	M1a2	1207	M1	T	0	25
31	2	A1a2	701	A1	T	1	26
31	3	Q2c3	2462	Q2	F	1	27
31	3	Q1c3	652	Q1	F	0	28
31	1	Q1c1	819	Q1	F	0	29
31	2	A1c2	587	A1	F	0	30
31	1	M1a1	968	M1	T	0	31
31	3	A1a3	548	A1	T	1	32
31	2	V1a2	668	V1	T	1	33
31	3	M1b3	1299	M1	U	0	34
31	2	Q1b2	1701	Q1	U	1	35
31	3	A2b3	1612	A2	U	1	36
31	2	A2b2	790	A2	U	1	37
31	1	Q2a1	1462	Q2	T	1	38
31	1	A1c1	575	A1	F	0	39
31	3	V1b3	2889	V1	U	1	40
31	2	M1c2	2635	M1	F	0	41
31	3	M1a3	941	M1	T	0	42
31	1	V1b1	1084	V1	U	1	43
31	1	Q1b1	681	Q1	U	1	44
31	1	Q1a1	1125	Q1	T	0	45
31	1	M2c1	678	M2	F	0	46
31	2	A2a2	1569	A2	T	1	47
31	R1	C1aR1	1006	C1	T	1	48
31	1	M1b1	1004	M1	U	1	49
31	2	V1c2	1024	V1	F	0	50
31	2	C1c2	2175	C1	F	0	51
31	2	M2a2	1118	M2	T	1	52
31	3	C1c3	1060	C1	F	0	53
31	2	Q2a2	849	Q2	T	1	54
31	2	A2c2	863	A2	F	0	55
31	3	Q1a3	891	Q1	T	0	56
31	3	M1c3	903	M1	F	0	57
31	1	V1c1	716	V1	F	0	58
31	3	M2c3	829	M2	F	0	59
31	2	Q2c2	1044	Q2	F	0	60
31	3	Q2a3	1059	Q2	T	1	61
31	3	V1a3	730	V1	T	1	62
31	1	A2c1	1047	A2	F	0	63
31	2	Q2b2	785	Q2	U	1	64
31	1	A2b1	596	A2	U	0	65
31	1	Q2b1	797	Q2	U	1	66
31	1	A2a1	721	A2	T	1	67
31	3	C1b3	1030	C1	U	1	68
31	1	M2a1	583	M2	T	1	69
31	1	C1b1	570	C1	U	1	70
31	3	Q2b3	684	Q2	U	1	71
31	3	A2a3	595	A2	T	1	72
32	1	V1c1	3048	V1	F	0	1
32	2	Q1b2	1543	Q1	U	1	2
32	1	A2c1	1463	A2	F	0	3
32	3	Q2c3	1268	Q2	F	0	4
32	L1	C1aL1	2701	C1	T	1	5
32	2	V1a2	1136	V1	T	1	6
32	3	M2c3	930	M2	F	0	7
32	3	M2a3	2062	M2	T	1	8
32	2	Q1c2	892	Q1	F	0	9
32	2	Q2b2	1014	Q2	U	1	10
32	3	A1a3	845	A1	T	1	11
32	1	Q2a1	989	Q2	T	1	12
32	2	M2a2	2104	M2	T	1	13
32	3	Q1b3	868	Q1	U	1	14
32	3	M1b3	811	M1	U	1	15
32	2	Q2c2	895	Q2	F	0	16
32	1	Q1b1	487	Q1	U	1	17
32	3	Q2a3	666	Q2	T	1	18
32	2	M1a2	588	M1	T	0	19
32	3	Q2b3	671	Q2	U	1	20
32	3	M1a3	551	M1	T	0	21
32	2	V1c2	515	V1	F	0	22
32	1	M2c1	588	M2	F	0	23
32	2	A2b2	822	A2	U	1	24
32	3	A1b3	2813	A1	U	1	25
32	2	A1c2	591	A1	F	0	26
32	1	M2a1	430	M2	T	1	27
32	2	M2c2	573	M2	F	0	28
32	2	A2a2	676	A2	T	1	29
32	1	A2a1	611	A2	T	1	30
32	2	V1b2	3266	V1	U	0	31
32	L2	C1aL2	963	C1	T	1	32
32	2	Q2a2	517	Q2	T	1	33
32	1	V1a1	644	V1	T	1	34
32	1	C1b1	1773	C1	U	1	35
32	1	A1a1	438	A1	T	1	36
32	2	A2c2	673	A2	F	0	37
32	3	V1a3	497	V1	T	1	38
32	2	C1b2	697	C1	U	1	39
32	2	C1c2	572	C1	F	0	40
32	R1	C1aR1	760	C1	T	1	41
32	2	A1b2	727	A1	U	1	42
32	1	M2b1	1680	M2	U	1	43
32	3	Q1a3	707	Q1	T	1	44
32	3	C1b3	568	C1	U	1	45
32	3	C1c3	491	C1	F	0	46
32	1	C1c1	610	C1	F	0	47
32	1	Q2c1	675	Q2	F	0	48
32	1	M1b1	618	M1	U	1	49
32	2	M1b2	409	M1	U	1	50
32	1	Q1c1	506	Q1	F	0	51
32	2	Q1a2	626	Q1	T	1	52
32	3	M2b3	682	M2	U	1	53
32	1	A2b1	466	A2	U	0	54
32	1	M1a1	1139	M1	T	0	55
32	1	V1c1	889	V1	F	0	56
32	1	V1b1	1221	V1	U	0	57
32	2	M1c2	1246	M1	F	0	58
32	3	A2b3	1253	A2	U	0	59
32	3	M1c3	1818	M1	F	0	60
32	1	Q2b1	453	Q2	U	1	61
32	3	A2a3	593	A2	T	1	62
32	3	V1b3	826	V1	U	0	63
32	3	A1c3	524	A1	F	0	64
32	3	A2c3	765	A2	F	0	65
32	1	A1c1	537	A1	F	0	66
32	1	M1c1	1126	M1	F	0	67
32	2	M2b2	698	M2	U	1	68
32	2	A1a2	576	A1	T	1	69
32	1	Q1a1	451	Q1	T	1	70
32	1	A1b1	745	A1	U	1	71
32	3	Q1c3	984	Q1	F	0	72
33	1	V1c1	2576	V1	F	0	1
33	2	A2c2	1392	A2	F	0	2
33	2	Q2a2	1106	Q2	T	1	3
33	3	C1c3	1684	C1	F	0	4
33	2	V1b2	1164	V1	U	1	5
33	3	Q2b3	641	Q2	U	1	6
33	1	A2c1	1653	A2	F	0	7
33	1	M2a1	2116	M2	T	0	8
33	2	M2b2	772	M2	U	1	9
33	2	V1a2	860	V1	T	1	10
33	1	Q2c1	852	Q2	F	0	11
33	2	A1b2	1233	A1	U	1	12
33	1	V1a1	626	V1	T	1	13
33	1	M1a1	1661	M1	T	0	14
33	1	A2a1	820	A2	T	1	15
33	1	Q1a1	1532	Q1	T	1	16
33	2	M1b2	493	M1	U	1	17
33	3	A1a3	802	A1	T	1	18
33	3	Q1b3	741	Q1	U	0	19
33	3	M1b3	469	M1	U	1	20
33	2	A1a2	613	A1	T	1	21
33	2	C1c2	819	C1	F	0	22
33	2	Q1b2	685	Q1	U	0	23
33	1	Q1c1	626	Q1	F	0	24
33	1	V1b1	902	V1	U	0	25
33	2	Q1c2	555	Q1	F	0	26
33	1	A1a1	469	A1	T	1	27
33	L1	C1aL1	613	C1	T	1	28
33	1	A2b1	2037	A2	U	0	29
33	3	C1b3	2413	C1	U	0	30
33	2	V1c2	717	V1	F	0	31
33	3	A2a3	564	A2	T	1	32
33	1	A1c1	547	A1	F	0	33
33	2	M1a2	500	M1	T	0	34
33	2	Q2b2	485	Q2	U	0	35
33	2	M2c2	853	M2	F	0	36
33	3	Q1c3	685	Q1	F	0	37
33	1	V1c1	557	V1	F	0	38
33	2	Q2c2	773	Q2	F	0	39
33	3	V1a3	477	V1	T	1	40
33	3	M1a3	413	M1	T	0	41
33	2	A1c2	541	A1	F	0	42
33	2	C1b2	796	C1	U	0	43
33	1	M2b1	1988	M2	U	0	44
33	3	M1c3	941	M1	F	0	45
33	1	Q2b1	661	Q2	U	1	46
33	3	A1c3	486	A1	F	0	47
33	1	M1b1	587	M1	U	1	48
33	2	M1c2	781	M1	F	0	49
33	1	Q2a1	629	Q2	T	1	50
33	3	A1b3	734	A1	U	1	51
33	3	A2c3	781	A2	F	0	52
33	2	M2a2	590	M2	T	1	53
33	1	A1b1	1249	A1	U	1	54
33	3	M2a3	610	M2	T	1	55
33	3	Q2c3	803	Q2	F	0	56
33	1	C1b1	612	C1	U	0	57
33	3	Q1a3	1324	Q1	T	1	58
33	2	Q1a2	556	Q1	T	1	59
33	1	Q1b1	508	Q1	U	0	60
33	1	C1c1	940	C1	F	0	61
33	2	A2a2	980	A2	T	1	62
33	3	M2b3	756	M2	U	0	63
33	3	M2c3	692	M2	F	0	64
33	R1	C1aR1	591	C1	T	1	65
33	L2	C1aL2	516	C1	T	0	66
33	3	V1b3	789	V1	U	0	67
33	3	A2b3	581	A2	U	0	68
33	1	M2c1	613	M2	F	0	69
33	3	Q2a3	1166	Q2	T	1	70
33	2	A2b2	557	A2	U	0	71
33	1	M1c1	1147	M1	F	0	72
34	1	V1c1	2661	V1	F	0	1
34	2	C1b2	3453	C1	U	0	2
34	3	V1b3	1742	V1	U	1	3
34	3	A2b3	1438	A2	U	0	4
34	1	A1b1	4615	A1	U	0	5
34	1	Q2b1	1805	Q2	U	0	6
34	2	Q1c2	1231	Q1	F	0	7
34	R1	C1aR1	1031	C1	T	1	8
34	3	A1b3	1366	A1	U	0	9
34	2	M1c2	1413	M1	F	0	10
34	1	Q1a1	862	Q1	T	1	11
34	1	A2a1	870	A2	T	1	12
34	1	A2c1	973	A2	F	0	13
34	L1	C1aL1	831	C1	T	1	14
34	2	Q2a2	926	Q2	T	1	15
34	2	V1a2	1310	V1	T	1	16
34	1	A2b1	1101	A2	U	0	17
34	2	Q2c2	1126	Q2	F	0	18
34	3	M2c3	1789	M2	F	0	19
34	2	Q1b2	711	Q1	U	0	20
34	3	Q1b3	662	Q1	U	0	21
34	1	M2c1	997	M2	F	0	22
34	3	Q1c3	694	Q1	F	0	23
34	2	M2c2	781	M2	F	0	24
34	1	Q1c1	669	Q1	F	0	25
34	3	M1c3	790	M1	F	0	26
34	3	V1a3	678	V1	T	1	27
34	2	Q2b2	1846	Q2	U	0	28
34	2	A2a2	822	A2	T	1	29
34	1	Q1b1	647	Q1	U	0	30
34	2	A2c2	837	A2	F	0	31
34	1	V1b1	1078	V1	U	0	32
34	3	M1b3	791	M1	U	1	33
34	1	M1a1	814	M1	T	0	34
34	2	V1b2	1030	V1	U	0	35
34	1	M1b1	1413	M1	U	1	36
34	1	Q2c1	775	Q2	F	0	37
34	3	C1b3	485	C1	U	0	38
34	L2	C1aL2	606	C1	T	1	39
34	3	Q2b3	911	Q2	U	0	40
34	3	A2a3	550	A2	T	1	41
34	3	A2c3	791	A2	F	0	42
34	3	A1a3	965	A1	T	1	43
34	2	V1c2	902	V1	F	0	44
34	1	V1c1	742	V1	F	0	45
34	3	Q2c3	871	Q2	F	0	46
34	3	M2b3	1319	M2	U	0	47
34	2	A2b2	565	A2	U	0	48
34	1	A1a1	543	A1	T	1	49
34	1	Q2a1	678	Q2	T	1	50
34	3	Q1a3	1046	Q1	T	1	51
34	3	C1c3	638	C1	F	0	52
34	2	M1b2	645	M1	U	1	53
34	1	C1c1	797	C1	F	0	54
34	2	Q1a2	1509	Q1	T	1	55
34	2	M2a2	702	M2	T	1	56
34	2	C1c2	686	C1	F	0	57
34	2	M1a2	1782	M1	T	0	58
34	2	A1c2	831	A1	F	0	59
34	1	M2b1	1398	M2	U	0	60
34	1	C1b1	1390	C1	U	0	61
34	2	M2b2	694	M2	U	0	62
34	2	A1b2	605	A1	U	0	63
34	2	A1a2	694	A1	T	1	64
34	1	A1c1	508	A1	F	0	65
34	1	M1c1	1111	M1	F	0	66
34	3	A1c3	654	A1	F	0	67
34	1	V1a1	644	V1	T	1	68
34	3	M2a3	598	M2	T	1	69
34	3	Q2a3	1775	Q2	T	1	70
34	3	M1a3	662	M1	T	0	71
34	1	M2a1	543	M2	T	1	72
35	1	V1c1	3309	V1	F	0	1
35	1	A1c1	2007	A1	F	0	2
35	3	M1c3	2194	M1	F	0	3
35	2	A2b2	4022	A2	U	1	4
35	3	A1c3	1624	A1	F	0	5
35	3	A1a3	1536	A1	T	1	6
35	3	Q1a3	1554	Q1	T	1	7
35	3	M1b3	1423	M1	U	1	8
35	1	Q1a1	1275	Q1	T	1	9
35	3	M1a3	3815	M1	T	1	10
35	1	Q2a1	1264	Q2	T	1	11
35	3	Q2a3	1146	Q2	T	1	12
35	R1	C1aR1	2333	C1	T	1	13
35	2	A1b2	1711	A1	U	1	14
35	2	A1c2	1484	A1	F	0	15
35	3	Q1b3	2005	Q1	U	0	16
35	1	M1c1	1691	M1	F	0	17
35	3	Q1c3	1421	Q1	F	0	18
35	2	C1b2	2351	C1	U	0	19
35	1	V1b1	1831	V1	U	1	20
35	1	M2b1	7477	M2	U	0	21
35	2	V1b2	1854	V1	U	1	22
35	2	Q1c2	1235	Q1	F	0	23
35	3	A2b3	2766	A2	U	0	24
35	1	C1c1	1871	C1	F	0	25
35	1	M1b1	1403	M1	U	1	26
35	2	Q2b2	3091	Q2	U	0	27
35	2	C1c2	1652	C1	F	0	28
35	1	A2b1	1724	A2	U	0	29
35	1	M2a1	1817	M2	T	1	30
35	1	C1b1	1724	C1	U	0	31
35	3	M2c3	2301	M2	F	0	32
35	3	M2a3	1536	M2	T	1	33
35	1	Q1c1	1348	Q1	F	0	34
35	2	Q2c2	2114	Q2	F	0	35
35	1	Q2c1	1516	Q2	F	0	36
35	2	V1a2	1305	V1	T	1	37
35	3	A2a3	1497	A2	T	1	38
35	3	V1b3	2307	V1	U	1	39
35	3	A1b3	1411	A1	U	1	40
35	1	A1b1	1136	A1	U	1	41
35	3	Q2c3	1813	Q2	F	0	42
35	3	C1b3	2442	C1	U	0	43
35	L2	C1aL2	1334	C1	T	1	44
35	1	A2a1	1992	A2	T	1	45
35	2	M1c2	1941	M1	F	0	46
35	2	M1a2	3252	M1	T	0	47
35	1	V1c1	1760	V1	F	0	48
35	3	Q2b3	1422	Q2	U	0	49
35	2	A2c2	1439	A2	F	0	50
35	1	Q2b1	1544	Q2	U	0	51
35	1	A1a1	1100	A1	T	1	52
35	2	Q1a2	1580	Q1	T	1	53
35	2	M1b2	1189	M1	U	1	54
35	3	V1a3	997	V1	T	1	55
35	2	Q1b2	1314	Q1	U	0	56
35	3	M2b3	5596	M2	U	0	57
35	2	M2a2	2412	M2	T	1	58
35	3	A2c3	1672	A2	F	0	59
35	2	A2a2	991	A2	T	1	60
35	1	M2c1	2444	M2	F	0	61
35	L1	C1aL1	1205	C1	T	1	62
35	2	V1c2	1615	V1	F	0	63
35	2	M2c2	1385	M2	F	0	64
35	3	C1c3	2014	C1	F	0	65
35	1	V1a1	1067	V1	T	1	66
35	2	Q2a2	1637	Q2	T	1	67
35	2	A1a2	857	A1	T	1	68
35	2	M2b2	1478	M2	U	0	69
35	1	M1a1	2095	M1	T	0	70
35	1	A2c1	1205	A2	F	0	71
35	1	Q1b1	1416	Q1	U	0	72
36	1	V1c1	1870	V1	F	0	1
36	3	C1b3	1712	C1	U	1	2
36	3	A1b3	1814	A1	U	1	3
36	1	A2b1	2189	A2	U	1	4
36	1	M2b1	3748	M2	U	0	5
36	3	A2c3	1529	A2	F	0	6
36	3	A1c3	1169	A1	F	0	7
36	1	M1a1	1549	M1	T	1	8
36	2	A1b2	1056	A1	U	1	9
36	1	M2a1	1513	M2	T	1	10
36	3	A2b3	1209	A2	U	1	11
36	2	M2a2	1242	M2	T	1	12
36	R1	C1aR1	1249	C1	T	1	13
36	2	Q2b2	1866	Q2	U	1	14
36	1	A2c1	1149	A2	F	0	15
36	1	V1a1	1026	V1	T	1	16
36	2	Q1c2	1063	Q1	F	0	17
36	2	Q1a2	764	Q1	T	1	18
36	1	M1c1	1143	M1	F	0	19
36	1	Q2a1	1645	Q2	T	1	20
36	2	A1c2	810	A1	F	0	21
36	1	C1c1	1362	C1	F	0	22
36	2	C1c2	1058	C1	F	0	23
36	1	A2a1	1069	A2	T	1	24
36	2	A2a2	993	A2	T	1	25
36	3	M2b3	1005	M2	U	0	26
36	3	M1a3	1063	M1	T	1	27
36	2	A1a2	1090	A1	T	1	28
36	3	V1b3	2519	V1	U	0	29
36	L2	C1aL2	945	C1	T	1	30
36	3	V1a3	951	V1	T	1	31
36	3	A2a3	886	A2	T	1	32
36	3	Q1a3	714	Q1	T	1	33
36	3	M2c3	1114	M2	F	0	34
36	1	M1b1	1718	M1	U	1	35
36	2	M1c2	852	M1	F	0	36
36	1	C1b1	953	C1	U	0	37
36	2	A2b2	1266	A2	U	1	38
36	1	Q2c1	1154	Q2	F	0	39
36	1	A1c1	731	A1	F	0	40
36	3	M1b3	995	M1	U	1	41
36	2	M1b2	784	M1	U	1	42
36	2	V1a2	864	V1	T	1	43
36	1	V1c1	728	V1	F	0	44
36	2	A2c2	906	A2	F	0	45
36	3	M1c3	943	M1	F	0	46
36	1	Q1c1	993	Q1	F	0	47
36	2	V1b2	1139	V1	U	0	48
36	1	M2c1	1060	M2	F	0	49
36	1	Q2b1	4486	Q2	U	0	50
36	3	A1a3	937	A1	T	1	51
36	3	C1c3	973	C1	F	0	52
36	2	Q2c2	1233	Q2	F	0	53
36	3	Q2c3	1019	Q2	F	0	54
36	1	A1b1	1096	A1	U	1	55
36	2	V1c2	802	V1	F	0	56
36	2	Q1b2	747	Q1	U	0	57
36	3	Q1c3	707	Q1	F	0	58
36	3	Q2b3	3226	Q2	U	1	59
36	L1	C1aL1	879	C1	T	1	60
36	2	Q2a2	1338	Q2	T	1	61
36	1	Q1a1	775	Q1	T	1	62
36	1	V1b1	1042	V1	U	0	63
36	2	M1a2	736	M1	T	1	64
36	2	M2c2	906	M2	F	0	65
36	2	M2b2	954	M2	U	0	66
36	3	Q1b3	751	Q1	U	0	67
36	1	Q1b1	761	Q1	U	0	68
36	2	C1b2	922	C1	U	0	69
36	3	M2a3	1102	M2	T	1	70
36	3	Q2a3	1042	Q2	T	1	71
36	1	A1a1	722	A1	T	1	72
37	1	V1c1	1000	V1	F	0	1
37	3	V1a3	818	V1	T	1	2
37	1	C1b1	971	C1	U	0	3
37	1	M1a1	700	M1	T	0	4
37	3	V1b3	892	V1	U	0	5
37	3	Q1b3	884	Q1	U	0	6
37	3	Q1a3	651	Q1	T	1	7
37	2	M2a2	788	M2	T	1	8
37	1	A2c1	907	A2	F	0	9
37	1	Q1b1	964	Q1	U	0	10
37	1	C1c1	706	C1	F	0	11
37	3	A1a3	573	A1	T	1	12
37	3	M1c3	716	M1	F	0	13
37	3	M1a3	820	M1	T	1	14
37	3	C1b3	572	C1	U	0	15
37	2	Q2c2	1486	Q2	F	0	16
37	2	A1b2	569	A1	U	0	17
37	3	Q1c3	621	Q1	F	0	18
37	2	A1c2	724	A1	F	0	19
37	2	C1c2	924	C1	F	0	20
37	2	M1c2	741	M1	F	0	21
37	3	A2c3	831	A2	F	0	22
37	2	Q1c2	661	Q1	F	0	23
37	2	V1c2	733	V1	F	0	24
37	3	C1c3	618	C1	F	0	25
37	1	Q2a1	629	Q2	T	1	26
37	2	M2c2	565	M2	F	0	27
37	1	M1c1	1085	M1	F	0	28
37	L2	C1aL2	580	C1	T	1	29
37	L1	C1aL1	654	C1	T	1	30
37	1	Q1c1	477	Q1	F	0	31
37	1	M2a1	539	M2	T	1	32
37	3	M2a3	653	M2	T	1	33
37	1	Q2c1	789	Q2	F	0	34
37	1	A1a1	445	A1	T	1	35
37	3	Q2a3	1069	Q2	T	0	36
37	2	M1a2	693	M1	T	1	37
37	3	M2c3	566	M2	F	0	38
37	3	A1c3	486	A1	F	0	39
37	2	A2c2	765	A2	F	0	40
37	1	M2c1	702	M2	F	0	41
37	1	A2b1	1035	A2	U	1	42
37	2	Q1b2	565	Q1	U	0	43
37	2	V1b2	2989	V1	U	0	44
37	1	M1b1	734	M1	U	1	45
37	2	M2b2	700	M2	U	0	46
37	R1	C1aR1	750	C1	T	1	47
37	1	M2b1	636	M2	U	0	48
37	2	C1b2	941	C1	U	0	49
37	2	A2b2	838	A2	U	0	50
37	3	A2a3	806	A2	T	1	51
37	3	A2b3	1148	A2	U	1	52
37	1	A1b1	550	A1	U	0	53
37	1	A1c1	526	A1	F	0	54
37	1	Q1a1	630	Q1	T	1	55
37	1	A2a1	645	A2	T	1	56
37	2	Q1a2	742	Q1	T	1	57
37	3	Q2c3	750	Q2	F	0	58
37	2	A1a2	493	A1	T	1	59
37	1	V1a1	782	V1	T	1	60
37	3	Q2b3	2964	Q2	U	1	61
37	3	M1b3	486	M1	U	1	62
37	1	V1c1	741	V1	F	0	63
37	2	Q2b2	2950	Q2	U	1	64
37	3	A1b3	510	A1	U	0	65
37	1	V1b1	805	V1	U	0	66
37	2	Q2a2	942	Q2	T	1	67
37	2	M1b2	518	M1	U	1	68
37	2	A2a2	653	A2	T	1	69
37	2	V1a2	798	V1	T	1	70
37	3	M2b3	622	M2	U	0	71
37	1	Q2b1	2366	Q2	U	1	72
38	1	V1c1	1915	V1	F	0	1
38	2	A2b2	926	A2	U	1	2
38	1	A2b1	646	A2	U	1	3
38	2	A1b2	703	A1	U	1	4
38	1	C1c1	929	C1	F	0	5
38	1	M2b1	1117	M2	U	0	6
38	1	M1a1	829	M1	T	0	7
38	3	V1b3	1246	V1	U	0	8
38	3	Q1b3	1021	Q1	U	0	9
38	1	Q2b1	796	Q2	U	0	10
38	2	V1c2	622	V1	F	0	11
38	2	M2b2	1094	M2	U	0	12
38	1	Q1a1	669	Q1	T	1	13
38	3	Q2b3	813	Q2	U	0	14
38	2	V1a2	622	V1	T	1	15
38	1	Q1c1	566	Q1	F	0	16
38	1	C1b1	741	C1	U	0	17
38	2	M1c2	973	M1	F	0	18
38	3	C1c3	718	C1	F	0	19
38	1	A1a1	453	A1	T	1	20
38	3	A2b3	782	A2	U	1	21
38	1	M1b1	654	M1	U	1	22
38	2	V1b2	877	V1	U	0	23
38	1	Q2a1	840	Q2	T	1	24
38	2	C1b2	487	C1	U	0	25
38	3	A1c3	550	A1	F	0	26
38	3	A1a3	558	A1	T	1	27
38	3	M2a3	877	M2	T	1	28
38	1	A2c1	992	A2	F	0	29
38	3	V1a3	479	V1	T	1	30
38	2	M1b2	614	M1	U	1	31
38	1	Q2c1	924	Q2	F	0	32
38	1	V1a1	541	V1	T	1	33
38	2	C1c2	558	C1	F	0	34
38	2	A1c2	550	A1	F	0	35
38	1	A1c1	399	A1	F	0	36
38	1	M1c1	622	M1	F	0	37
38	1	Q1b1	661	Q1	U	0	38
38	2	M2c2	613	M2	F	0	39
38	1	M2a1	702	M2	T	1	40
38	2	Q1b2	839	Q1	U	0	41
38	3	A2c3	637	A2	F	0	42
38	3	A1b3	670	A1	U	1	43
38	3	M1c3	870	M1	F	0	44
38	1	V1b1	559	V1	U	0	45
38	2	Q2a2	670	Q2	T	1	46
38	1	M2c1	630	M2	F	0	47
38	2	M1a2	655	M1	T	1	48
38	3	Q2a3	1046	Q2	T	0	49
38	3	M1a3	733	M1	T	1	50
38	3	C1b3	686	C1	U	0	51
38	3	Q1c3	454	Q1	F	0	52
38	2	A2a2	791	A2	T	1	53
38	1	V1c1	567	V1	F	0	54
38	1	A2a1	541	A2	T	1	55
38	2	Q1c2	509	Q1	F	0	56
38	3	Q1a3	542	Q1	T	1	57
38	3	M2c3	652	M2	F	0	58
38	2	Q1a2	518	Q1	T	1	59
38	R1	C1aR1	509	C1	T	1	60
38	1	A1b1	469	A1	U	1	61
38	L1	C1aL1	510	C1	T	1	62
38	2	Q2c2	862	Q2	F	0	63
38	L2	C1aL2	534	C1	T	1	64
38	2	A1a2	487	A1	T	1	65
38	2	A2c2	630	A2	F	0	66
38	3	M1b3	519	M1	U	1	67
38	2	Q2b2	582	Q2	U	0	68
38	3	M2b3	750	M2	U	0	69
38	3	Q2c3	1142	Q2	F	1	70
38	2	M2a2	558	M2	T	1	71
38	3	A2a3	726	A2	T	1	72
39	1	V1c1	2524	V1	F	0	1
39	1	M1c1	1802	M1	F	0	2
39	1	M2c1	1072	M2	F	0	3
39	2	Q1c2	599	Q1	F	0	4
39	1	Q2b1	1174	Q2	U	1	5
39	3	A2a3	1561	A2	T	1	6
39	L2	C1aL2	1460	C1	T	1	7
39	2	V1c2	1381	V1	F	0	8
39	1	C1b1	2651	C1	U	0	9
39	1	Q1a1	1380	Q1	T	1	10
39	1	Q2a1	1159	Q2	T	1	11
39	2	Q1a2	941	Q1	T	1	12
39	3	M1c3	756	M1	F	0	13
39	2	C1b2	2104	C1	U	0	14
39	2	Q2b2	1826	Q2	U	0	15
39	3	Q1a3	2357	Q1	T	1	16
39	1	V1a1	1493	V1	T	1	17
39	3	C1c3	994	C1	F	0	18
39	3	A2c3	1687	A2	F	0	19
39	1	Q1c1	1884	Q1	F	0	20
39	3	A2b3	1652	A2	U	0	21
39	1	A1b1	1982	A1	U	0	22
39	1	V1b1	1335	V1	U	0	23
39	1	Q1b1	1028	Q1	U	0	24
39	1	A2c1	810	A2	F	0	25
39	1	M2a1	2077	M2	T	1	26
39	2	C1c2	843	C1	F	0	27
39	2	V1b2	993	V1	U	0	28
39	3	M2b3	2097	M2	U	0	29
39	L1	C1aL1	1291	C1	T	1	30
39	2	M2b2	1364	M2	U	0	31
39	3	Q2a3	1097	Q2	T	1	32
39	3	C1b3	892	C1	U	0	33
39	2	A2c2	819	A2	F	0	34
39	2	Q1b2	957	Q1	U	0	35
39	3	Q2b3	1050	Q2	U	0	36
39	R1	C1aR1	1041	C1	T	1	37
39	2	V1a2	957	V1	T	1	38
39	2	A2a2	882	A2	T	1	39
39	2	Q2c2	781	Q2	F	0	40
39	1	Q2c1	1173	Q2	F	0	41
39	1	M1a1	2563	M1	T	1	42
39	2	M1b2	3479	M1	U	0	43
39	3	Q2c3	1013	Q2	F	0	44
39	1	A1c1	1150	A1	F	0	45
39	2	M2a2	901	M2	T	1	46
39	1	C1c1	780	C1	F	0	47
39	3	M1b3	642	M1	U	0	48
39	2	M1c2	925	M1	F	0	49
39	2	A1c2	689	A1	F	0	50
39	1	A2b1	606	A2	U	0	51
39	3	A1c3	565	A1	F	0	52
39	2	M1a2	2785	M1	T	1	53
39	3	V1a3	1050	V1	T	1	54
39	1	V1c1	674	V1	F	0	55
39	1	A2a1	929	A2	T	1	56
39	3	M2c3	764	M2	F	0	57
39	3	V1b3	1384	V1	U	0	58
39	3	M1a3	1076	M1	T	1	59
39	2	Q2a2	1541	Q2	T	1	60
39	1	M2b1	725	M2	U	0	61
39	3	A1b3	888	A1	U	0	62
39	3	M2a3	1200	M2	T	1	63
39	1	A1a1	1972	A1	T	1	64
39	3	Q1c3	1031	Q1	F	0	65
39	2	A1a2	868	A1	T	1	66
39	1	M1b1	942	M1	U	0	67
39	2	A2b2	930	A2	U	0	68
39	2	A1b2	811	A1	U	0	69
39	3	A1a3	3095	A1	T	1	70
39	2	M2c2	1037	M2	F	0	71
39	3	Q1b3	1136	Q1	U	0	72
40	1	V1c1	3993	V1	F	0	1
40	1	Q2a1	2280	Q2	T	1	2
40	3	Q1b3	1429	Q1	U	1	3
40	2	V1b2	2423	V1	U	1	4
40	3	Q2b3	1160	Q2	U	1	5
40	3	A2b3	1757	A2	U	1	6
40	2	A1a2	1558	A1	T	1	7
40	1	Q2c1	2979	Q2	F	0	8
40	1	A2b1	1239	A2	U	1	9
40	2	V1a2	2237	V1	T	1	10
40	3	C1c3	2470	C1	F	0	11
40	3	M1a3	4231	M1	T	0	12
40	1	Q1c1	1833	Q1	F	0	13
40	1	V1a1	1543	V1	T	1	14
40	R1	C1aR1	2511	C1	T	1	15
40	1	V1b1	2424	V1	U	1	16
40	1	C1c1	1487	C1	F	0	17
40	3	C1b3	1027	C1	U	1	18
40	3	A1c3	1497	A1	F	0	19
40	3	A2c3	2138	A2	F	0	20
40	3	M2b3	1871	M2	U	1	21
40	1	M2a1	3387	M2	T	0	22
40	3	Q2a3	1150	Q2	T	1	23
40	1	A2c1	1548	A2	F	0	24
40	3	A1b3	1671	A1	U	1	25
40	2	M2c2	1875	M2	F	1	26
40	2	A2c2	1096	A2	F	1	27
40	3	M1b3	2429	M1	U	1	28
40	2	Q1b2	1378	Q1	U	0	29
40	2	C1c2	1360	C1	F	0	30
40	2	Q2c2	1049	Q2	F	0	31
40	1	M1b1	1316	M1	U	1	32
40	3	V1a3	1384	V1	T	1	33
40	1	M2b1	1557	M2	U	1	34
40	2	A2b2	1933	A2	U	1	35
40	1	C1b1	884	C1	U	1	36
40	3	V1b3	1382	V1	U	1	37
40	2	A1c2	1916	A1	F	0	38
40	2	M1a2	1593	M1	T	0	39
40	1	A1b1	1303	A1	U	1	40
40	2	A1b2	520	A1	U	1	41
40	2	Q2b2	647	Q2	U	1	42
40	2	M1c2	1545	M1	F	0	43
40	3	A2a3	1687	A2	T	1	44
40	2	M2a2	3373	M2	T	0	45
40	3	Q1a3	1723	Q1	T	1	46
40	3	Q2c3	1427	Q2	F	1	47
40	2	Q2a2	794	Q2	T	1	48
40	2	C1b2	1713	C1	U	0	49
40	3	M1c3	1238	M1	F	0	50
40	1	Q1b1	1688	Q1	U	0	51
40	1	A2a1	969	A2	T	1	52
40	1	V1c1	1116	V1	F	0	53
40	2	Q1a2	1107	Q1	T	1	54
40	2	V1c2	1217	V1	F	0	55
40	3	M2c3	1112	M2	F	0	56
40	2	M1b2	742	M1	U	1	57
40	1	M2c1	978	M2	F	0	58
40	1	M1c1	681	M1	F	0	59
40	3	M2a3	920	M2	T	1	60
40	1	Q2b1	663	Q2	U	1	61
40	2	Q1c2	621	Q1	F	0	62
40	1	A1a1	638	A1	T	1	63
40	1	A1c1	569	A1	F	0	64
40	1	Q1a1	1010	Q1	T	1	65
40	3	Q1c3	833	Q1	F	0	66
40	2	A2a2	3409	A2	T	1	67
40	L2	C1aL2	663	C1	T	1	68
40	2	M2b2	548	M2	U	1	69
40	1	M1a1	789	M1	T	0	70
40	L1	C1aL1	1092	C1	T	1	71
40	3	A1a3	563	A1	T	1	72
41	1	V1c1	2823	V1	F	0	1
41	3	A2a3	1484	A2	T	1	2
41	L2	C1aL2	1694	C1	T	0	3
41	2	Q2a2	1289	Q2	T	1	4
41	2	Q1c2	1111	Q1	F	0	5
41	2	M2c2	1097	M2	F	0	6
41	2	V1c2	1085	V1	F	0	7
41	1	M1c1	1199	M1	F	0	8
41	3	V1b3	1209	V1	U	1	9
41	1	Q1b1	1745	Q1	U	0	10
41	1	V1c1	932	V1	F	0	11
41	1	M2b1	1952	M2	U	1	12
41	3	Q2c3	1279	Q2	F	0	13
41	2	M1b2	1146	M1	U	1	14
41	2	M1c2	733	M1	F	0	15
41	1	A1b1	1636	A1	U	1	16
41	3	Q1c3	610	Q1	F	0	17
41	1	A2b1	1154	A2	U	1	18
41	2	V1a2	1087	V1	T	1	19
41	2	Q1a2	1407	Q1	T	1	20
41	3	Q2b3	1169	Q2	U	1	21
41	1	C1c1	1191	C1	F	0	22
41	3	Q1b3	984	Q1	U	1	23
41	2	C1b2	750	C1	U	1	24
41	3	C1b3	613	C1	U	1	25
41	2	A1c2	672	A1	F	0	26
41	2	A1a2	743	A1	T	1	27
41	3	A2b3	887	A2	U	1	28
41	1	A1c1	805	A1	F	0	29
41	2	C1c2	1281	C1	F	0	30
41	3	M1b3	970	M1	U	1	31
41	2	A2a2	957	A2	T	1	32
41	2	A1b2	756	A1	U	1	33
41	2	V1b2	1410	V1	U	1	34
41	3	A1a3	531	A1	T	1	35
41	2	A2b2	981	A2	U	1	36
41	L1	C1aL1	614	C1	T	1	37
41	3	C1c3	664	C1	F	0	38
41	1	M2a1	1134	M2	T	1	39
41	2	M2a2	818	M2	T	1	40
41	3	A1b3	624	A1	U	1	41
41	3	M2b3	1058	M2	U	1	42
41	1	Q2c1	1598	Q2	F	0	43
41	1	V1b1	715	V1	U	1	44
41	2	M2b2	682	M2	U	1	45
41	3	V1a3	1738	V1	T	1	46
41	1	A2a1	618	A2	T	1	47
41	1	Q2b1	777	Q2	U	1	48
41	3	Q1a3	666	Q1	T	1	49
41	1	M2c1	1076	M2	F	0	50
41	3	M2c3	1674	M2	F	0	51
41	2	Q2c2	1042	Q2	F	0	52
41	3	A2c3	962	A2	F	0	53
41	2	A2c2	1037	A2	F	0	54
41	3	M1a3	1977	M1	T	1	55
41	1	Q2a1	729	Q2	T	1	56
41	2	Q2b2	858	Q2	U	1	57
41	1	M1a1	802	M1	T	1	58
41	3	M1c3	1183	M1	F	0	59
41	2	Q1b2	1102	Q1	U	1	60
41	1	Q1c1	698	Q1	F	0	61
41	1	M1b1	810	M1	U	1	62
41	3	M2a3	852	M2	T	1	63
41	2	M1a2	875	M1	T	1	64
41	1	A2c1	962	A2	F	0	65
41	1	Q1a1	914	Q1	T	1	66
41	1	A1a1	624	A1	T	1	67
41	1	V1a1	1238	V1	T	1	68
41	3	A1c3	828	A1	F	0	69
41	3	Q2a3	878	Q2	T	1	70
41	1	C1b1	668	C1	U	1	71
41	R1	C1aR1	1025	C1	T	1	72
42	1	V1c1	2433	V1	F	0	1
42	3	A2b3	2080	A2	U	1	2
42	3	C1c3	1337	C1	F	0	3
42	2	A2c2	608	A2	F	0	4
42	2	M1a2	3431	M1	T	1	5
42	1	Q1c1	1258	Q1	F	0	6
42	2	Q1a2	874	Q1	T	1	7
42	1	V1a1	558	V1	T	1	8
42	2	Q1b2	766	Q1	U	0	9
42	2	Q2c2	987	Q2	F	0	10
42	2	A2a2	834	A2	T	1	11
42	3	Q1b3	655	Q1	U	0	12
42	1	Q2b1	2587	Q2	U	0	13
42	3	Q1a3	646	Q1	T	1	14
42	3	Q2c3	802	Q2	F	1	15
42	R1	C1aR1	1354	C1	T	1	16
42	1	V1c1	601	V1	F	0	17
42	3	M2c3	680	M2	F	0	18
42	2	Q2a2	1141	Q2	T	1	19
42	3	Q2b3	1445	Q2	U	0	20
42	2	C1c2	724	C1	F	0	21
42	1	M2b1	1233	M2	U	0	22
42	3	A1b3	950	A1	U	0	23
42	2	M2c2	647	M2	F	0	24
42	3	V1a3	1271	V1	T	1	25
42	3	Q2a3	2012	Q2	T	1	26
42	3	Q1c3	606	Q1	F	0	27
42	2	A1b2	1604	A1	U	0	28
42	2	A2b2	521	A2	U	0	29
42	3	M2b3	612	M2	U	0	30
42	1	Q2c1	777	Q2	F	0	31
42	3	M1b3	1338	M1	U	0	32
42	1	A1c1	954	A1	F	0	33
42	3	M1c3	1150	M1	F	0	34
42	1	A1a1	540	A1	T	1	35
42	3	A2c3	671	A2	F	0	36
42	1	A2c1	818	A2	F	0	37
42	2	M1b2	640	M1	U	0	38
42	1	Q1b1	911	Q1	U	0	39
42	1	A2b1	500	A2	U	0	40
42	1	M1c1	621	M1	F	0	41
42	2	V1c2	509	V1	F	0	42
42	L1	C1aL1	594	C1	T	1	43
42	1	M2a1	591	M2	T	1	44
42	2	M1c2	649	M1	F	0	45
42	3	V1b3	973	V1	U	0	46
42	2	Q1c2	609	Q1	F	0	47
42	1	M1b1	494	M1	U	0	48
42	1	Q2a1	627	Q2	T	1	49
42	2	A1c2	482	A1	F	0	50
42	1	V1b1	758	V1	U	0	51
42	1	C1c1	608	C1	F	0	52
42	1	M2c1	532	M2	F	0	53
42	3	C1b3	1422	C1	U	0	54
42	L2	C1aL2	551	C1	T	1	55
42	2	C1b2	550	C1	U	0	56
42	2	Q2b2	676	Q2	U	0	57
42	3	A1a3	475	A1	T	1	58
42	3	A2a3	683	A2	T	1	59
42	3	M2a3	478	M2	T	1	60
42	3	A1c3	500	A1	F	0	61
42	1	A1b1	502	A1	U	0	62
42	1	C1b1	479	C1	U	0	63
42	1	M1a1	511	M1	T	1	64
42	2	A1a2	416	A1	T	1	65
42	2	M2a2	535	M2	T	1	66
42	2	V1a2	505	V1	T	1	67
42	1	Q1a1	1226	Q1	T	1	68
42	1	A2a1	546	A2	T	1	69
42	2	V1b2	577	V1	U	0	70
42	2	M2b2	560	M2	U	0	71
42	3	M1a3	467	M1	T	1	72
43	1	V1c1	2985	V1	F	0	1
43	3	C1c3	3684	C1	F	0	2
43	3	Q1a3	1749	Q1	T	1	3
43	2	A2b2	1797	A2	U	1	4
43	2	V1b2	5148	V1	U	0	5
43	3	Q1b3	1797	Q1	U	1	6
43	2	Q1b2	843	Q1	U	1	7
43	L1	C1aL1	918	C1	T	1	8
43	3	A1c3	3838	A1	F	0	9
43	2	V1a2	3618	V1	T	1	10
43	3	V1b3	1803	V1	U	0	11
43	1	Q2a1	1620	Q2	T	1	12
43	2	Q2a2	805	Q2	T	1	13
43	1	Q2b1	1044	Q2	U	1	14
43	1	Q1a1	1325	Q1	T	1	15
43	2	M2a2	1693	M2	T	1	16
43	2	Q1a2	541	Q1	T	1	17
43	1	M2b1	1451	M2	U	1	18
43	3	C1b3	1119	C1	U	1	19
43	2	M1a2	2565	M1	T	1	20
43	3	M2c3	2037	M2	F	0	21
43	L2	C1aL2	613	C1	T	1	22
43	2	A1a2	1111	A1	T	1	23
43	1	C1b1	957	C1	U	1	24
43	2	Q2c2	1403	Q2	F	0	25
43	2	M1b2	1212	M1	U	1	26
43	1	A1b1	4244	A1	U	1	27
43	2	A1c2	1381	A1	F	0	28
43	3	Q2c3	1494	Q2	F	0	29
43	1	A2b1	1366	A2	U	1	30
43	1	M1a1	1045	M1	T	1	31
43	2	M2b2	2315	M2	U	1	32
43	1	Q1b1	772	Q1	U	1	33
43	1	Q2c1	2500	Q2	F	1	34
43	3	A2c3	1230	A2	F	0	35
43	2	A1b2	1036	A1	U	1	36
43	1	M1c1	1330	M1	F	0	37
43	2	Q1c2	1107	Q1	F	0	38
43	2	A2a2	1421	A2	T	1	39
43	3	Q2a3	660	Q2	T	1	40
43	3	M1c3	1138	M1	F	0	41
43	2	C1c2	3969	C1	F	0	42
43	1	M1b1	1220	M1	U	1	43
43	2	V1c2	1158	V1	F	0	44
43	1	V1b1	1197	V1	U	0	45
43	2	Q2b2	1146	Q2	U	1	46
43	R1	C1aR1	1038	C1	T	1	47
43	3	M2a3	1011	M2	T	1	48
43	3	M1b3	748	M1	U	1	49
43	3	A1b3	658	A1	U	1	50
43	1	C1c1	900	C1	F	1	51
43	1	Q1c1	1141	Q1	F	0	52
43	1	M2c1	1261	M2	F	0	53
43	2	C1b2	891	C1	U	1	54
43	3	M1a3	1132	M1	T	1	55
43	3	M2b3	1972	M2	U	1	56
43	3	A2b3	900	A2	U	0	57
43	1	M2a1	740	M2	T	1	58
43	1	A1a1	989	A1	T	1	59
43	1	A2a1	613	A2	T	1	60
43	3	A2a3	581	A2	T	1	61
43	3	A1a3	572	A1	T	1	62
43	2	M2c2	1109	M2	F	0	63
43	3	Q1c3	981	Q1	F	0	64
43	1	A1c1	1437	A1	F	0	65
43	1	V1c1	1050	V1	F	0	66
43	1	A2c1	1748	A2	F	1	67
43	1	V1a1	1277	V1	T	1	68
43	2	A2c2	1724	A2	F	0	69
43	3	Q2b3	524	Q2	U	1	70
43	2	M1c2	917	M1	F	0	71
43	3	V1a3	1325	V1	T	1	72
44	1	V1c1	4954	V1	F	0	1
44	2	A1c2	1935	A1	F	0	2
44	3	C1b3	1641	C1	U	1	3
44	3	M2a3	2168	M2	T	1	4
44	3	V1a3	1376	V1	T	1	5
44	1	M1a1	3860	M1	T	1	6
44	3	M2c3	1585	M2	F	0	7
44	3	Q2c3	1899	Q2	F	0	8
44	1	A1c1	1206	A1	F	0	9
44	3	M1a3	1591	M1	T	1	10
44	2	Q1a2	1196	Q1	T	1	11
44	3	A1c3	1168	A1	F	0	12
44	3	M1b3	1526	M1	U	1	13
44	1	A2c1	1539	A2	F	0	14
44	3	A1b3	1152	A1	U	1	15
44	2	Q2c2	1520	Q2	F	0	16
44	2	Q2b2	2043	Q2	U	1	17
44	1	M1c1	1639	M1	F	0	18
44	2	C1c2	1494	C1	F	0	19
44	2	Q1b2	2481	Q1	U	0	20
44	2	M1a2	4419	M1	T	1	21
44	1	M2a1	1345	M2	T	1	22
44	3	Q1c3	1106	Q1	F	0	23
44	3	M1c3	1564	M1	F	0	24
44	1	M1b1	889	M1	U	1	25
44	1	C1c1	1090	C1	F	0	26
44	1	V1c1	1059	V1	F	0	27
44	1	Q2a1	1241	Q2	T	1	28
44	3	A1a3	1181	A1	T	1	29
44	1	Q2b1	5714	Q2	U	0	30
44	2	V1a2	1703	V1	T	1	31
44	2	M1c2	1508	M1	F	0	32
44	1	A1b1	3792	A1	U	0	33
44	2	V1b2	1725	V1	U	0	34
44	3	Q2a3	1297	Q2	T	1	35
44	1	M2b1	2138	M2	U	0	36
44	2	M2b2	1002	M2	U	0	37
44	L1	C1aL1	996	C1	T	1	38
44	2	M2c2	1048	M2	F	0	39
44	2	A2b2	1705	A2	U	1	40
44	2	V1c2	1049	V1	F	0	41
44	1	A2b1	3246	A2	U	1	42
44	1	A1a1	936	A1	T	1	43
44	2	Q1c2	1029	Q1	F	0	44
44	1	Q1a1	874	Q1	T	1	45
44	2	M2a2	698	M2	T	1	46
44	1	Q1c1	790	Q1	F	0	47
44	2	Q2a2	1081	Q2	T	1	48
44	3	C1c3	1066	C1	F	0	49
44	3	A2b3	1401	A2	U	1	50
44	1	A2a1	1123	A2	T	1	51
44	3	V1b3	1415	V1	U	1	52
44	3	M2b3	1020	M2	U	0	53
44	1	Q1b1	1020	Q1	U	0	54
44	1	V1a1	1147	V1	T	1	55
44	1	M2c1	818	M2	F	0	56
44	R1	C1aR1	999	C1	T	1	57
44	3	Q1b3	1105	Q1	U	0	58
44	1	C1b1	1576	C1	U	0	59
44	3	Q2b3	1218	Q2	U	0	60
44	2	M1b2	2736	M1	U	1	61
44	2	A1a2	850	A1	T	1	62
44	1	V1b1	3853	V1	U	0	63
44	2	A2c2	1258	A2	F	0	64
44	2	C1b2	968	C1	U	0	65
44	3	Q1a3	937	Q1	T	1	66
44	2	A2a2	916	A2	T	1	67
44	2	A1b2	1113	A1	U	0	68
44	3	A2a3	1598	A2	T	1	69
44	1	Q2c1	2993	Q2	F	0	70
44	L2	C1aL2	946	C1	T	1	71
44	3	A2c3	1088	A2	F	0	72
45	1	V1c1	5312	V1	F	1	1
45	3	Q2b3	1143	Q2	U	1	2
45	3	A2c3	932	A2	F	1	3
45	1	C1b1	2252	C1	U	0	4
45	1	V1c1	1490	V1	F	1	5
45	3	C1b3	2197	C1	U	0	6
45	1	M2b1	3231	M2	U	0	7
45	2	M1b2	2365	M1	U	0	8
45	1	Q2a1	1047	Q2	T	1	9
45	3	Q1b3	957	Q1	U	1	10
45	1	Q2c1	1566	Q2	F	0	11
45	R1	C1aR1	3426	C1	T	0	12
45	3	M2c3	1044	M2	F	0	13
45	1	C1c1	554	C1	F	0	14
45	1	V1a1	1245	V1	T	1	15
45	2	A2b2	1526	A2	U	1	16
45	1	Q1c1	1112	Q1	F	0	17
45	2	Q2a2	1154	Q2	T	1	18
45	1	M1b1	3878	M1	U	0	19
45	1	A1b1	1182	A1	U	0	20
45	3	Q1a3	1293	Q1	T	0	21
45	1	V1b1	3476	V1	U	1	22
45	1	Q1b1	745	Q1	U	1	23
45	1	A2c1	1669	A2	F	0	24
45	1	M1a1	1046	M1	T	0	25
45	2	A1c2	1281	A1	F	0	26
45	2	Q2c2	1007	Q2	F	0	27
45	1	Q1a1	1297	Q1	T	1	28
45	2	Q1a2	1012	Q1	T	1	29
45	3	M1a3	610	M1	T	0	30
45	3	A1b3	478	A1	U	0	31
45	2	Q2b2	1579	Q2	U	0	32
45	3	Q2c3	1037	Q2	F	0	33
45	1	A2b1	1484	A2	U	1	34
45	2	A2a2	971	A2	T	1	35
45	2	V1c2	761	V1	F	0	36
45	1	Q2b1	860	Q2	U	1	37
45	2	M1a2	584	M1	T	0	38
45	2	V1b2	1588	V1	U	0	39
45	3	V1b3	539	V1	U	0	40
45	3	M1c3	877	M1	F	0	41
45	3	A1a3	1323	A1	T	1	42
45	3	C1c3	945	C1	F	0	43
45	2	C1c2	608	C1	F	0	44
45	L1	C1aL1	2190	C1	T	1	45
45	3	A2b3	900	A2	U	1	46
45	3	M1b3	708	M1	U	1	47
45	L2	C1aL2	1005	C1	T	1	48
45	2	A2c2	919	A2	F	0	49
45	1	A1a1	715	A1	T	1	50
45	1	A2a1	894	A2	T	1	51
45	2	C1b2	1232	C1	U	1	52
45	2	V1a2	906	V1	T	1	53
45	2	M1c2	554	M1	F	0	54
45	3	Q2a3	1596	Q2	T	1	55
45	2	A1b2	617	A1	U	0	56
45	3	M2a3	1075	M2	T	1	57
45	2	M2b2	716	M2	U	1	58
45	3	A1c3	774	A1	F	0	59
45	2	Q1b2	832	Q1	U	1	60
45	2	M2a2	712	M2	T	1	61
45	2	M2c2	2054	M2	F	1	62
45	3	A2a3	636	A2	T	1	63
45	3	V1a3	747	V1	T	1	64
45	1	M1c1	526	M1	F	0	65
45	2	Q1c2	670	Q1	F	0	66
45	2	A1a2	817	A1	T	1	67
45	1	M2c1	580	M2	F	0	68
45	1	A1c1	779	A1	F	0	69
45	1	M2a1	538	M2	T	1	70
45	3	Q1c3	545	Q1	F	0	71
45	3	M2b3	552	M2	U	1	72
46	1	V1c1	1238	V1	F	0	1
46	3	Q2b3	1961	Q2	U	0	2
46	1	M1a1	715	M1	T	1	3
46	1	Q2c1	1275	Q2	F	0	4
46	L2	C1aL2	2235	C1	T	0	5
46	3	M2b3	2546	M2	U	0	6
46	3	A1c3	794	A1	F	0	7
46	3	M2a3	577	M2	T	1	8
46	2	A1c2	594	A1	F	0	9
46	2	A1b2	1278	A1	U	1	10
46	3	Q2a3	879	Q2	T	1	11
46	L1	C1aL1	828	C1	T	1	12
46	3	M1a3	538	M1	T	1	13
46	R1	C1aR1	835	C1	T	1	14
46	2	C1b2	672	C1	U	0	15
46	1	V1a1	732	V1	T	1	16
46	3	M1c3	721	M1	F	0	17
46	2	M1c2	684	M1	F	0	18
46	1	M1b1	1022	M1	U	1	19
46	2	V1a2	635	V1	T	1	20
46	3	A2a3	1047	A2	T	1	21
46	2	M2b2	944	M2	U	0	22
46	3	A1a3	742	A1	T	1	23
46	2	M1b2	608	M1	U	1	24
46	2	Q2b2	2110	Q2	U	0	25
46	1	A1a1	509	A1	T	1	26
46	2	M2c2	779	M2	F	0	27
46	1	Q2a1	2696	Q2	T	1	28
46	1	V1b1	1668	V1	U	0	29
46	2	A1a2	539	A1	T	1	30
46	1	C1c1	728	C1	F	0	31
46	3	Q1c3	652	Q1	F	0	32
46	3	A2c3	825	A2	F	0	33
46	1	Q1c1	608	Q1	F	0	34
46	3	M1b3	547	M1	U	1	35
46	2	Q1c2	528	Q1	F	0	36
46	1	A1c1	758	A1	F	0	37
46	3	C1b3	5452	C1	U	0	38
46	1	A2b1	3015	A2	U	0	39
46	1	Q1b1	1013	Q1	U	0	40
46	3	V1a3	739	V1	T	1	41
46	2	A2a2	807	A2	T	1	42
46	1	M2a1	3810	M2	T	1	43
46	3	C1c3	1264	C1	F	0	44
46	2	M1a2	875	M1	T	1	45
46	1	A2a1	735	A2	T	1	46
46	1	C1b1	794	C1	U	0	47
46	2	A2c2	1049	A2	F	0	48
46	2	M2a2	507	M2	T	1	49
46	1	A2c1	609	A2	F	0	50
46	2	Q2c2	757	Q2	F	0	51
46	3	A1b3	692	A1	U	1	52
46	1	Q2b1	716	Q2	U	0	53
46	3	Q2c3	1033	Q2	F	0	54
46	2	C1c2	583	C1	F	0	55
46	3	M2c3	551	M2	F	0	56
46	2	Q2a2	1161	Q2	T	1	57
46	1	Q1a1	567	Q1	T	1	58
46	1	M2b1	2152	M2	U	0	59
46	3	V1b3	1316	V1	U	0	60
46	2	Q1a2	726	Q1	T	1	61
46	2	A2b2	511	A2	U	0	62
46	2	V1b2	557	V1	U	0	63
46	1	A1b1	624	A1	U	1	64
46	3	Q1a3	521	Q1	T	1	65
46	2	V1c2	722	V1	F	0	66
46	1	M1c1	596	M1	F	0	67
46	3	A2b3	506	A2	U	0	68
46	2	Q1b2	554	Q1	U	0	69
46	3	Q1b3	422	Q1	U	0	70
46	1	V1c1	535	V1	F	0	71
46	1	M2c1	613	M2	F	0	72
47	1	V1c1	5080	V1	F	0	1
47	2	C1c2	2617	C1	F	0	2
47	3	Q1b3	3273	Q1	U	0	3
47	1	M2c1	1291	M2	F	0	4
47	2	V1a2	1401	V1	T	1	5
47	2	M1b2	1635	M1	U	0	6
47	1	V1c1	931	V1	F	0	7
47	R1	C1aR1	1405	C1	T	1	8
47	2	A2b2	2155	A2	U	0	9
47	3	Q1a3	913	Q1	T	1	10
47	2	C1b2	875	C1	U	0	11
47	3	A2b3	1393	A2	U	0	12
47	1	M2a1	1323	M2	T	1	13
47	3	C1b3	915	C1	U	0	14
47	2	Q1b2	1003	Q1	U	0	15
47	1	A2a1	1051	A2	T	1	16
47	3	A1a3	883	A1	T	1	17
47	3	M2b3	1364	M2	U	0	18
47	3	C1c3	1262	C1	F	0	19
47	1	A1c1	747	A1	F	1	20
47	3	A1b3	3412	A1	U	1	21
47	2	A1b2	4233	A1	U	1	22
47	1	M1b1	1161	M1	U	0	23
47	1	Q2c1	1196	Q2	F	0	24
47	2	M2b2	1737	M2	U	0	25
47	1	M2b1	2427	M2	U	0	26
47	2	A2c2	1362	A2	F	0	27
47	3	M2c3	1062	M2	F	0	28
47	1	A1b1	2875	A1	U	1	29
47	3	Q2a3	1452	Q2	T	1	30
47	L2	C1aL2	882	C1	T	1	31
47	2	Q2c2	852	Q2	F	0	32
47	1	M1a1	10766	M1	T	1	33
47	3	Q1c3	811	Q1	F	0	34
47	3	M2a3	1205	M2	T	1	35
47	2	V1c2	892	V1	F	0	36
47	3	Q2c3	1158	Q2	F	0	37
47	1	A2c1	929	A2	F	0	38
47	3	Q2b3	1636	Q2	U	0	39
47	1	Q2b1	836	Q2	U	0	40
47	3	M1a3	959	M1	T	1	41
47	2	V1b2	4980	V1	U	0	42
47	1	Q1b1	1036	Q1	U	0	43
47	1	A1a1	891	A1	T	1	44
47	3	M1c3	1093	M1	F	0	45
47	2	M1c2	1043	M1	F	0	46
47	1	Q1c1	677	Q1	F	0	47
47	1	C1c1	765	C1	F	0	48
47	2	A1a2	755	A1	T	1	49
47	2	M1a2	667	M1	T	1	50
47	2	Q1a2	980	Q1	T	1	51
47	3	A2c3	859	A2	F	0	52
47	1	A2b1	1019	A2	U	0	53
47	L1	C1aL1	1075	C1	T	1	54
47	3	V1b3	1253	V1	U	0	55
47	3	M1b3	843	M1	U	0	56
47	3	A2a3	939	A2	T	1	57
47	2	Q1c2	660	Q1	F	0	58
47	2	M2c2	980	M2	F	0	59
47	1	V1b1	938	V1	U	0	60
47	2	Q2a2	852	Q2	T	1	61
47	2	A2a2	1380	A2	T	1	62
47	2	A1c2	835	A1	F	0	63
47	3	V1a3	1164	V1	T	1	64
47	1	M1c1	1094	M1	F	0	65
47	2	M2a2	1245	M2	T	1	66
47	1	V1a1	948	V1	T	1	67
47	1	Q1a1	979	Q1	T	1	68
47	2	Q2b2	2230	Q2	U	0	69
47	1	Q2a1	2394	Q2	T	1	70
47	1	C1b1	1037	C1	U	0	71
47	3	A1c3	989	A1	F	0	72
48	1	V1c1	3508	V1	F	0	1
48	1	Q2b1	1631	Q2	U	1	2
48	3	Q2b3	1043	Q2	U	1	3
48	2	A1b2	1980	A1	U	1	4
48	1	A2a1	1227	A2	T	1	5
48	1	V1b1	1139	V1	U	1	6
48	2	C1c2	2463	C1	F	0	7
48	2	Q1a2	1230	Q1	T	1	8
48	3	A1b3	1031	A1	U	1	9
48	1	Q1b1	1378	Q1	U	0	10
48	3	M1a3	2617	M1	T	1	11
48	2	Q2c2	1519	Q2	F	0	12
48	2	M1b2	917	M1	U	1	13
48	L1	C1aL1	1137	C1	T	1	14
48	1	A1a1	1124	A1	T	1	15
48	1	A1b1	1208	A1	U	0	16
48	2	A1c2	1312	A1	F	0	17
48	3	M2a3	2697	M2	T	0	18
48	3	M1b3	651	M1	U	1	19
48	1	M1c1	1762	M1	F	0	20
48	2	V1c2	1232	V1	F	0	21
48	1	Q2a1	1077	Q2	T	1	22
48	1	M1a1	1314	M1	T	0	23
48	2	A1a2	808	A1	T	1	24
48	1	M2b1	1762	M2	U	1	25
48	3	A2c3	1807	A2	F	0	26
48	2	Q1b2	1028	Q1	U	0	27
48	3	M2b3	1246	M2	U	1	28
48	3	M1c3	1854	M1	F	0	29
48	3	A2b3	1089	A2	U	0	30
48	3	Q1b3	970	Q1	U	0	31
48	3	Q1a3	1580	Q1	T	1	32
48	2	A2a2	912	A2	T	1	33
48	2	Q2b2	1069	Q2	U	0	34
48	2	M1a2	910	M1	T	0	35
48	2	C1b2	2379	C1	U	1	36
48	1	A2b1	983	A2	U	0	37
48	3	V1a3	682	V1	T	1	38
48	2	V1a2	667	V1	T	1	39
48	1	M1b1	729	M1	U	1	40
48	3	C1c3	933	C1	F	0	41
48	1	M2c1	1090	M2	F	0	42
48	3	V1b3	1125	V1	U	1	43
48	1	C1c1	840	C1	F	0	44
48	2	Q2a2	1052	Q2	T	1	45
48	L2	C1aL2	734	C1	T	1	46
48	3	C1b3	948	C1	U	1	47
48	1	V1a1	603	V1	T	1	48
48	R1	C1aR1	583	C1	T	1	49
48	1	C1b1	619	C1	U	1	50
48	3	A1a3	577	A1	T	1	51
48	1	A1c1	626	A1	F	0	52
48	2	M2b2	1372	M2	U	1	53
48	3	M2c3	681	M2	F	0	54
48	2	Q1c2	812	Q1	F	0	55
48	1	V1c1	726	V1	F	0	56
48	1	Q1c1	567	Q1	F	0	57
48	1	A2c1	1024	A2	F	0	58
48	3	A1c3	568	A1	F	0	59
48	2	M2c2	678	M2	F	0	60
48	1	M2a1	686	M2	T	1	61
48	1	Q1a1	729	Q1	T	1	62
48	1	Q2c1	1058	Q2	F	0	63
48	2	A2b2	711	A2	U	0	64
48	2	M2a2	660	M2	T	1	65
48	2	V1b2	903	V1	U	1	66
48	2	A2c2	863	A2	F	0	67
48	2	M1c2	828	M1	F	0	68
48	3	A2a3	536	A2	T	1	69
48	3	Q1c3	636	Q1	F	0	70
48	3	Q2c3	1068	Q2	F	0	71
48	3	Q2a3	569	Q2	T	1	72
49	1	V1c1	6699	V1	F	0	1
49	2	M2b2	9583	M2	U	0	2
49	3	M1c3	2370	M1	F	0	3
49	1	C1b1	2012	C1	U	0	4
49	1	Q2c1	1897	Q2	F	0	5
49	3	Q2a3	2065	Q2	T	1	6
49	2	C1c2	3081	C1	F	0	7
49	1	Q1a1	2815	Q1	T	1	8
49	1	A2a1	1651	A2	T	1	9
49	3	A1b3	2974	A1	U	1	10
49	L1	C1aL1	1649	C1	T	1	11
49	L2	C1aL2	1736	C1	T	1	12
49	2	Q2b2	2551	Q2	U	0	13
49	3	M2b3	2233	M2	U	0	14
49	2	Q2a2	1709	Q2	T	1	15
49	3	A1c3	1475	A1	F	0	16
49	3	M2a3	1605	M2	T	1	17
49	2	A1a2	1231	A1	T	1	18
49	1	A2b1	2669	A2	U	1	19
49	2	A1b2	1453	A1	U	1	20
49	2	Q1b2	1541	Q1	U	0	21
49	3	Q2b3	1901	Q2	U	0	22
49	1	V1a1	1480	V1	T	1	23
49	2	V1b2	4207	V1	U	0	24
49	1	V1c1	1372	V1	F	0	25
49	2	A2a2	1121	A2	T	1	26
49	2	A1c2	1215	A1	F	0	27
49	2	M2c2	1642	M2	F	0	28
49	3	A2a3	1063	A2	T	1	29
49	2	A2c2	1649	A2	F	0	30
49	3	M1b3	1594	M1	U	1	31
49	3	Q1b3	1020	Q1	U	0	32
49	1	M2b1	1142	M2	U	0	33
49	3	C1b3	520608	C1	U	0	34
49	3	A1a3	1560	A1	T	1	35
49	3	M2c3	969	M2	F	0	36
49	2	M1b2	1024	M1	U	1	37
49	1	M2a1	1516	M2	T	1	38
49	1	C1c1	1105	C1	F	0	39
49	1	M2c1	1014	M2	F	0	40
49	2	A2b2	4715	A2	U	1	41
49	3	Q1a3	1462	Q1	T	1	42
49	2	M2a2	1599	M2	T	1	43
49	2	Q2c2	1801	Q2	F	1	44
49	1	A1b1	2564	A1	U	1	45
49	1	Q1b1	1531	Q1	U	0	46
49	1	M1b1	1259	M1	U	1	47
49	3	A2b3	3914	A2	U	1	48
49	3	V1b3	2011	V1	U	1	49
49	2	M1a2	3331	M1	T	1	50
49	2	V1c2	1344	V1	F	0	51
49	2	M1c2	1837	M1	F	0	52
49	1	A1a1	1161	A1	T	1	53
49	1	A1c1	1271	A1	F	0	54
49	2	Q1c2	3535	Q1	F	0	55
49	1	Q1c1	1310	Q1	F	0	56
49	3	Q1c3	1171	Q1	F	0	57
49	1	V1b1	1355	V1	U	0	58
49	3	C1c3	854	C1	F	0	59
49	3	M1a3	3190	M1	T	1	60
49	1	Q2b1	2477	Q2	U	1	61
49	1	M1c1	1621	M1	F	0	62
49	3	V1a3	1511	V1	T	1	63
49	2	Q1a2	1632	Q1	T	1	64
49	3	Q2c3	1771	Q2	F	0	65
49	1	A2c1	3456	A2	F	0	66
49	2	C1b2	1569	C1	U	0	67
49	2	V1a2	1627	V1	T	1	68
49	R1	C1aR1	5202	C1	T	1	69
49	1	Q2a1	1569	Q2	T	0	70
49	1	M1a1	1222	M1	T	1	71
49	3	A2c3	1849	A2	F	0	72
50	1	V1c1	2604	V1	F	1	1
50	3	M1a3	1975	M1	T	0	2
50	1	M2c1	1651	M2	F	0	3
50	2	A2a2	977	A2	T	0	4
50	2	Q2b2	1245	Q2	U	1	5
50	2	V1c2	1190	V1	F	0	6
50	3	A1b3	1977	A1	U	1	7
50	3	Q1b3	1426	Q1	U	0	8
50	2	M1a2	1211	M1	T	0	9
50	L1	C1aL1	1941	C1	T	1	10
50	1	C1b1	1417	C1	U	1	11
50	3	A2a3	1257	A2	T	1	12
50	1	Q1c1	1245	Q1	F	0	13
50	1	A2c1	1122	A2	F	0	14
50	3	M2b3	1740	M2	U	0	15
50	2	A1b2	1131	A1	U	1	16
50	1	Q1b1	976	Q1	U	0	17
50	3	Q1a3	841	Q1	T	1	18
50	1	Q2a1	1111	Q2	T	1	19
50	1	A1a1	2157	A1	T	1	20
50	3	Q2b3	1032	Q2	U	0	21
50	1	V1b1	1302	V1	U	1	22
50	1	A2b1	1831	A2	U	1	23
50	3	Q2a3	1381	Q2	T	1	24
50	2	Q1b2	796	Q1	U	0	25
50	2	M1c2	1516	M1	F	0	26
50	3	C1b3	931	C1	U	1	27
50	1	V1c1	930	V1	F	0	28
50	2	M2a2	996	M2	T	1	29
50	2	A2b2	1211	A2	U	0	30
50	2	A2c2	1180	A2	F	0	31
50	1	Q2c1	1269	Q2	F	0	32
50	3	A2b3	964	A2	U	0	33
50	3	V1a3	973	V1	T	1	34
50	3	A1c3	1032	A1	F	0	35
50	2	M2c2	988	M2	F	0	36
50	3	M1b3	627	M1	U	1	37
50	1	A1c1	817	A1	F	0	38
50	2	Q2a2	1054	Q2	T	1	39
50	2	M1b2	942	M1	U	1	40
50	3	C1c3	1099	C1	F	0	41
50	3	Q2c3	1490	Q2	F	0	42
50	3	V1b3	1045	V1	U	1	43
50	1	C1c1	1438	C1	F	0	44
50	2	Q1a2	932	Q1	T	1	45
50	2	V1b2	1010	V1	U	1	46
50	R1	C1aR1	1392	C1	T	0	47
50	2	Q2c2	953	Q2	F	0	48
50	3	M2a3	909	M2	T	1	49
50	1	Q1a1	851	Q1	T	1	50
50	3	A2c3	818	A2	F	0	51
50	2	M2b2	873	M2	U	0	52
50	2	Q1c2	729	Q1	F	0	53
50	L2	C1aL2	920	C1	T	0	54
50	3	M1c3	773	M1	F	0	55
50	2	A1c2	695	A1	F	0	56
50	2	A1a2	751	A1	T	1	57
50	3	Q1c3	683	Q1	F	0	58
50	2	V1a2	593	V1	T	1	59
50	1	M1b1	829	M1	U	1	60
50	1	A2a1	953	A2	T	0	61
50	1	M2b1	919	M2	U	0	62
50	2	C1c2	796	C1	F	0	63
50	1	Q2b1	1515	Q2	U	1	64
50	1	M1c1	875	M1	F	0	65
50	1	V1a1	649	V1	T	1	66
50	2	C1b2	908	C1	U	1	67
50	1	A1b1	1122	A1	U	1	68
50	1	M1a1	705	M1	T	0	69
50	1	M2a1	593	M2	T	1	70
50	3	M2c3	752	M2	F	0	71
50	3	A1a3	942	A1	T	1	72
